"","group","counterbalance","block_type","block","delay_condition","trial","chosen","unchosen","offer_left_image","offer_right_image","exp_value_chosen","exp_value_unchosen","choice_location","choice_key","exp_value1","exp_value2","exp_value3","exp_value4","reward","coins_per_block","coins_per_task","ITI_duration","rt_deadline","choice_feedback_duration","outcome_duration","subject","rt","stay","reward_oneback","reward_twoback","reward_threeback","reoffer_chosen_oneback","stay_key","delta_exp_value","acc","abort"
"1","ADHD","start_with_long_delay"," test",1,7,2,1,4,4,1,0.35,0.65," right",2,0.35,0.45,0.55,0.65,"unrewarded",0,4,1,6,0.5,1,"0DKx3BNQ",1.63120379997417,1,"unrewarded",NA,NA,TRUE,0,0.3,0,FALSE
"2","ADHD","start_with_long_delay"," test",1,7,3,3,4,3,4,0.55,0.65," left",1,0.35,0.45,0.55,0.65,"rewarded",1,5,1,6,0.5,1,"0DKx3BNQ",1.78134479979053,0,"unrewarded","unrewarded",NA,FALSE,0,0.1,0,FALSE
"3","ADHD","start_with_long_delay"," test",1,7,4,1,4,4,1,0.35,0.65," right",2,0.35,0.45,0.55,0.65,"unrewarded",1,5,1,6,0.5,1,"0DKx3BNQ",1.87981699989177,0,"rewarded","unrewarded","unrewarded",FALSE,0,0.3,0,FALSE
"4","ADHD","start_with_long_delay"," test",1,7,5,1,4,1,4,0.35,0.65," left",1,0.35,0.45,0.55,0.65,"unrewarded",1,5,1,6,0.5,1,"0DKx3BNQ",1.15227710013278,1,"unrewarded","rewarded","unrewarded",TRUE,0,0.3,0,FALSE
"5","ADHD","start_with_long_delay"," test",1,7,6,4,1,4,1,0.65,0.35," left",1,0.35,0.45,0.55,0.65,"rewarded",2,6,1,6,0.5,1,"0DKx3BNQ",1.42336850007996,0,"unrewarded","unrewarded","rewarded",TRUE,1,0.3,1,FALSE
"6","ADHD","start_with_long_delay"," test",1,7,7,3,1,3,1,0.55,0.35," left",1,0.35,0.45,0.55,0.65,"rewarded",3,7,1,6,0.5,1,"0DKx3BNQ",1.29564599995501,0,"rewarded","unrewarded","unrewarded",FALSE,1,0.2,1,FALSE
"7","ADHD","start_with_long_delay"," test",1,7,8,3,4,4,3,0.55,0.65," right",2,0.35,0.45,0.55,0.65,"rewarded",4,8,1,6,0.5,1,"0DKx3BNQ",1.040378900012,1,"rewarded","rewarded","unrewarded",TRUE,0,0.1,0,FALSE
"8","ADHD","start_with_long_delay"," test",1,7,9,3,4,4,3,0.55,0.65," right",2,0.35,0.45,0.55,0.65,"rewarded",5,9,1,6,0.5,1,"0DKx3BNQ",0.903806300135329,1,"rewarded","rewarded","rewarded",TRUE,1,0.1,0,FALSE
"9","ADHD","start_with_long_delay"," test",1,7,10,2,4,2,4,0.45,0.65," left",1,0.35,0.45,0.55,0.65,"unrewarded",5,9,1,6,0.5,1,"0DKx3BNQ",0.87246589991264,0,"rewarded","rewarded","rewarded",FALSE,0,0.2,0,FALSE
"10","ADHD","start_with_long_delay"," test",1,7,11,2,3,2,3,0.45,0.55," left",1,0.35,0.45,0.55,0.65,"unrewarded",5,9,1,6,0.5,1,"0DKx3BNQ",1.75470370007679,1,"unrewarded","rewarded","rewarded",TRUE,1,0.1,0,FALSE
"11","ADHD","start_with_long_delay"," test",1,7,12,3,1,3,1,0.55,0.35," left",1,0.35,0.45,0.55,0.65,"unrewarded",5,9,1,6,0.5,1,"0DKx3BNQ",1.30906100012362,0,"unrewarded","unrewarded","rewarded",FALSE,1,0.2,1,FALSE
"12","ADHD","start_with_long_delay"," test",1,7,13,3,2,2,3,0.55,0.45," right",2,0.35,0.45,0.55,0.65,"rewarded",6,10,1,6,0.5,1,"0DKx3BNQ",0.5203249999322,1,"unrewarded","unrewarded","unrewarded",TRUE,0,0.1,1,FALSE
"13","ADHD","start_with_long_delay"," test",1,7,14,3,4,4,3,0.55,0.65," right",2,0.35,0.45,0.55,0.65,"unrewarded",6,10,1,6,0.5,1,"0DKx3BNQ",0.421761199831963,1,"rewarded","unrewarded","unrewarded",TRUE,1,0.1,0,FALSE
"14","ADHD","start_with_long_delay"," test",1,7,15,3,2,3,2,0.55,0.45," left",1,0.35,0.45,0.55,0.65,"rewarded",7,11,1,6,0.5,1,"0DKx3BNQ",0.889571400126442,1,"unrewarded","rewarded","unrewarded",TRUE,0,0.1,1,FALSE
"15","ADHD","start_with_long_delay"," test",1,7,16,3,2,3,2,0.55,0.45," left",1,0.35,0.45,0.55,0.65,"unrewarded",7,11,1,6,0.5,1,"0DKx3BNQ",0.662953400053084,1,"rewarded","unrewarded","rewarded",TRUE,1,0.1,1,FALSE
"16","ADHD","start_with_long_delay"," test",1,7,17,2,3,3,2,0.45,0.55," right",2,0.35,0.45,0.55,0.65,"unrewarded",7,11,1,6,0.5,1,"0DKx3BNQ",1.79910729988478,0,"unrewarded","rewarded","unrewarded",TRUE,0,0.1,0,FALSE
"17","ADHD","start_with_long_delay"," test",1,7,18,4,1,4,1,0.65,0.35," left",1,0.35,0.45,0.55,0.65,"unrewarded",7,11,1,6,0.5,1,"0DKx3BNQ",1.20441439980641,0,"unrewarded","unrewarded","rewarded",FALSE,0,0.3,1,FALSE
"18","ADHD","start_with_long_delay"," test",1,7,19,3,2,2,3,0.55,0.45," right",2,0.35,0.45,0.55,0.65,"rewarded",8,12,1,6,0.5,1,"0DKx3BNQ",1.21572580002248,0,"unrewarded","unrewarded","unrewarded",FALSE,0,0.1,1,FALSE
"19","ADHD","start_with_long_delay"," test",1,7,20,3,1,3,1,0.55,0.35," left",1,0.35,0.45,0.55,0.65,"rewarded",9,13,1,6,0.5,1,"0DKx3BNQ",0.748560500098392,1,"rewarded","unrewarded","unrewarded",TRUE,0,0.2,1,FALSE
"20","ADHD","start_with_long_delay"," test",1,7,21,4,1,4,1,0.65,0.35," left",1,0.35,0.45,0.55,0.65,"unrewarded",9,13,1,6,0.5,1,"0DKx3BNQ",0.902401600033045,0,"rewarded","rewarded","unrewarded",FALSE,1,0.3,1,FALSE
"21","ADHD","start_with_long_delay"," test",1,7,22,4,1,4,1,0.65,0.35," left",1,0.35,0.45,0.55,0.65,"rewarded",10,14,1,6,0.5,1,"0DKx3BNQ",0.564157899934798,1,"unrewarded","rewarded","rewarded",TRUE,1,0.3,1,FALSE
"22","ADHD","start_with_long_delay"," test",1,7,23,3,2,3,2,0.55,0.45," left",1,0.35,0.45,0.55,0.65,"unrewarded",10,14,1,6,0.5,1,"0DKx3BNQ",0.584349000127986,0,"rewarded","unrewarded","rewarded",FALSE,1,0.1,1,FALSE
"23","ADHD","start_with_long_delay"," test",1,7,24,3,1,3,1,0.55,0.35," left",1,0.35,0.45,0.55,0.65,"rewarded",11,15,1,6,0.5,1,"0DKx3BNQ",0.629672199953347,1,"unrewarded","rewarded","unrewarded",TRUE,1,0.2,1,FALSE
"24","ADHD","start_with_long_delay"," test",1,7,25,3,2,3,2,0.55,0.45," left",1,0.35,0.45,0.55,0.65,"unrewarded",11,15,1,6,0.5,1,"0DKx3BNQ",0.352905200095847,1,"rewarded","unrewarded","rewarded",TRUE,1,0.1,1,FALSE
"25","ADHD","start_with_long_delay"," test",2,1,1,1,3,1,3,0.35,0.55," left",1,0.35,0.45,0.55,0.65,"unrewarded",0,15,1,6,0.5,1,"0DKx3BNQ",0.610401699785143,0,"unrewarded","rewarded","unrewarded",TRUE,1,0.2,0,FALSE
"26","ADHD","start_with_long_delay"," test",2,1,2,3,2,3,2,0.55,0.45," left",1,0.35,0.45,0.55,0.65,"rewarded",1,16,1,6,0.5,1,"0DKx3BNQ",0.770897200098261,0,"unrewarded","unrewarded","rewarded",FALSE,1,0.1,1,FALSE
"27","ADHD","start_with_long_delay"," test",2,1,3,3,2,2,3,0.55,0.45," right",2,0.35,0.45,0.55,0.65,"rewarded",2,17,1,6,0.5,1,"0DKx3BNQ",0.85696900007315,1,"rewarded","unrewarded","unrewarded",TRUE,0,0.1,1,FALSE
"28","ADHD","start_with_long_delay"," test",2,1,4,4,1,4,1,0.65,0.35," left",1,0.35,0.45,0.55,0.65,"unrewarded",2,17,1,6,0.5,1,"0DKx3BNQ",1.13569499994628,0,"rewarded","rewarded","unrewarded",FALSE,0,0.3,1,FALSE
"29","ADHD","start_with_long_delay"," test",2,1,5,3,4,3,4,0.55,0.65," left",1,0.35,0.45,0.55,0.65,"unrewarded",2,17,1,6,0.5,1,"0DKx3BNQ",0.898848399985582,0,"unrewarded","rewarded","rewarded",TRUE,1,0.1,0,FALSE
"30","ADHD","start_with_long_delay"," test",2,1,6,4,2,2,4,0.65,0.45," right",2,0.35,0.45,0.55,0.65,"unrewarded",2,17,1,6,0.5,1,"0DKx3BNQ",1.152155400021,0,"unrewarded","unrewarded","rewarded",FALSE,0,0.2,1,FALSE
"31","ADHD","start_with_long_delay"," test",2,1,7,4,1,4,1,0.65,0.35," left",1,0.35,0.45,0.55,0.65,"rewarded",3,18,1,6,0.5,1,"0DKx3BNQ",1.30244640004821,1,"unrewarded","unrewarded","unrewarded",TRUE,0,0.3,1,FALSE
"32","ADHD","start_with_long_delay"," test",2,1,8,4,1,4,1,0.65,0.35," left",1,0.35,0.45,0.55,0.65,"rewarded",4,19,1,6,0.5,1,"0DKx3BNQ",0.6506658999715,1,"rewarded","unrewarded","unrewarded",TRUE,1,0.3,1,FALSE
"33","ADHD","start_with_long_delay"," test",2,1,9,3,2,3,2,0.55,0.45," left",1,0.35,0.45,0.55,0.65,"rewarded",5,20,1,6,0.5,1,"0DKx3BNQ",0.698238100158051,0,"rewarded","rewarded","unrewarded",FALSE,1,0.1,1,FALSE
"34","ADHD","start_with_long_delay"," test",2,1,10,2,4,2,4,0.45,0.65," left",1,0.35,0.45,0.55,0.65,"unrewarded",5,20,1,6,0.5,1,"0DKx3BNQ",0.912811300018802,0,"rewarded","rewarded","rewarded",FALSE,1,0.2,0,FALSE
"35","ADHD","start_with_long_delay"," test",2,1,11,2,4,4,2,0.45,0.65," right",2,0.35,0.45,0.55,0.65,"unrewarded",5,20,1,6,0.5,1,"0DKx3BNQ",0.642276200000197,1,"unrewarded","rewarded","rewarded",TRUE,0,0.2,0,FALSE
"36","ADHD","start_with_long_delay"," test",2,1,12,3,4,4,3,0.55,0.65," right",2,0.35,0.45,0.55,0.65,"rewarded",6,21,1,6,0.5,1,"0DKx3BNQ",0.698239100165665,0,"unrewarded","unrewarded","rewarded",FALSE,1,0.1,0,FALSE
"37","ADHD","start_with_long_delay"," test",2,1,13,3,2,3,2,0.55,0.45," left",1,0.35,0.45,0.55,0.65,"unrewarded",6,21,1,6,0.5,1,"0DKx3BNQ",0.709382999921218,1,"rewarded","unrewarded","unrewarded",TRUE,0,0.1,1,FALSE
"38","ADHD","start_with_long_delay"," test",2,1,14,3,2,2,3,0.55,0.45," right",2,0.35,0.45,0.55,0.65,"unrewarded",6,21,1,6,0.5,1,"0DKx3BNQ",0.558165199821815,1,"unrewarded","rewarded","unrewarded",TRUE,0,0.1,1,FALSE
"39","ADHD","start_with_long_delay"," test",2,1,15,1,2,1,2,0.35,0.45," left",1,0.35,0.45,0.55,0.65,"unrewarded",6,21,1,6,0.5,1,"0DKx3BNQ",2.18882800010033,0,"unrewarded","unrewarded","rewarded",FALSE,0,0.1,0,FALSE
"40","ADHD","start_with_long_delay"," test",2,1,16,2,4,2,4,0.45,0.65," left",1,0.35,0.45,0.55,0.65,"rewarded",7,22,1,6,0.5,1,"0DKx3BNQ",1.19424490001984,0,"unrewarded","unrewarded","unrewarded",FALSE,1,0.2,0,FALSE
"41","ADHD","start_with_long_delay"," test",2,1,17,4,1,1,4,0.65,0.35," right",2,0.35,0.45,0.55,0.65,"unrewarded",7,22,1,6,0.5,1,"0DKx3BNQ",0.611239099875093,0,"rewarded","unrewarded","unrewarded",FALSE,0,0.3,1,FALSE
"42","ADHD","start_with_long_delay"," test",2,1,18,4,1,1,4,0.65,0.35," right",2,0.35,0.45,0.55,0.65,"unrewarded",7,22,1,6,0.5,1,"0DKx3BNQ",0.839940200094134,1,"unrewarded","rewarded","unrewarded",TRUE,1,0.3,1,FALSE
"43","ADHD","start_with_long_delay"," test",2,1,19,2,1,1,2,0.45,0.35," right",2,0.35,0.45,0.55,0.65,"rewarded",8,23,1,6,0.5,1,"0DKx3BNQ",0.733084399951622,0,"unrewarded","unrewarded","rewarded",FALSE,1,0.1,1,FALSE
"44","ADHD","start_with_long_delay"," test",2,1,20,3,4,4,3,0.55,0.65," right",2,0.35,0.45,0.55,0.65,"rewarded",9,24,1,6,0.5,1,"0DKx3BNQ",0.535506499931216,0,"rewarded","unrewarded","unrewarded",FALSE,1,0.1,0,FALSE
"45","ADHD","start_with_long_delay"," test",2,1,21,3,4,4,3,0.55,0.65," right",2,0.35,0.45,0.55,0.65,"rewarded",10,25,1,6,0.5,1,"0DKx3BNQ",0.359421300003305,1,"rewarded","rewarded","unrewarded",TRUE,1,0.1,0,FALSE
"46","ADHD","start_with_long_delay"," test",2,1,22,4,1,4,1,0.65,0.35," left",1,0.35,0.45,0.55,0.65,"unrewarded",10,25,1,6,0.5,1,"0DKx3BNQ",1.00854839989915,0,"rewarded","rewarded","rewarded",FALSE,0,0.3,1,FALSE
"47","ADHD","start_with_long_delay"," test",2,1,23,4,2,2,4,0.65,0.45," right",2,0.35,0.45,0.55,0.65,"rewarded",11,26,1,6,0.5,1,"0DKx3BNQ",0.938609399832785,1,"unrewarded","rewarded","rewarded",TRUE,0,0.2,1,FALSE
"48","ADHD","start_with_long_delay"," test",2,1,24,4,1,4,1,0.65,0.35," left",1,0.35,0.45,0.55,0.65,"rewarded",12,27,1,6,0.5,1,"0DKx3BNQ",1.36529109999537,1,"rewarded","unrewarded","rewarded",TRUE,0,0.3,1,FALSE
"49","ADHD","start_with_long_delay"," test",2,1,25,2,1,1,2,0.45,0.35," right",2,0.35,0.45,0.55,0.65,"rewarded",13,28,1,6,0.5,1,"0DKx3BNQ",0.85612399992533,0,"rewarded","rewarded","unrewarded",FALSE,0,0.1,1,FALSE
"50","ADHD","start_with_long_delay"," test",3,7,1,3,4,3,4,0.55,0.65," left",1,0.35,0.45,0.55,0.65,"rewarded",1,29,1,6,0.5,1,"0DKx3BNQ",0.565893900115043,0,"rewarded","rewarded","rewarded",FALSE,0,0.1,0,FALSE
"51","ADHD","start_with_long_delay"," test",3,7,2,1,2,2,1,0.35,0.45," right",2,0.35,0.45,0.55,0.65,"rewarded",2,30,1,6,0.5,1,"0DKx3BNQ",0.664494200143963,0,"rewarded","rewarded","rewarded",FALSE,0,0.1,0,FALSE
"52","ADHD","start_with_long_delay"," test",3,7,3,1,2,1,2,0.35,0.45," left",1,0.35,0.45,0.55,0.65,"unrewarded",2,30,1,6,0.5,1,"0DKx3BNQ",0.311492299893871,1,"rewarded","rewarded","rewarded",TRUE,0,0.1,0,FALSE
"53","ADHD","start_with_long_delay"," test",3,7,4,3,2,3,2,0.55,0.45," left",1,0.35,0.45,0.55,0.65,"unrewarded",2,30,1,6,0.5,1,"0DKx3BNQ",0.899455599952489,0,"unrewarded","rewarded","rewarded",FALSE,1,0.1,1,FALSE
"54","ADHD","start_with_long_delay"," test",3,7,5,4,1,1,4,0.65,0.35," right",2,0.35,0.45,0.55,0.65,"rewarded",3,31,1,6,0.5,1,"0DKx3BNQ",0.823353300103918,0,"unrewarded","unrewarded","rewarded",FALSE,0,0.3,1,FALSE
"55","ADHD","start_with_long_delay"," test",3,7,6,4,3,4,3,0.65,0.55," left",1,0.35,0.45,0.55,0.65,"unrewarded",3,31,1,6,0.5,1,"0DKx3BNQ",0.763864899985492,1,"rewarded","unrewarded","unrewarded",TRUE,0,0.1,1,FALSE
"56","ADHD","start_with_long_delay"," test",3,7,7,4,2,2,4,0.65,0.45," right",2,0.35,0.45,0.55,0.65,"rewarded",4,32,1,6,0.5,1,"0DKx3BNQ",0.638510099845007,1,"unrewarded","rewarded","unrewarded",TRUE,0,0.2,1,FALSE
"57","ADHD","start_with_long_delay"," test",3,7,8,3,2,2,3,0.55,0.45," right",2,0.35,0.45,0.55,0.65,"rewarded",5,33,1,6,0.5,1,"0DKx3BNQ",0.464539099950343,0,"rewarded","unrewarded","rewarded",FALSE,1,0.1,1,FALSE
"58","ADHD","start_with_long_delay"," test",3,7,9,3,2,3,2,0.55,0.45," left",1,0.35,0.45,0.55,0.65,"rewarded",6,34,1,6,0.5,1,"0DKx3BNQ",0.382519300095737,1,"rewarded","rewarded","unrewarded",TRUE,0,0.1,1,FALSE
"59","ADHD","start_with_long_delay"," test",3,7,10,3,2,3,2,0.55,0.45," left",1,0.35,0.45,0.55,0.65,"unrewarded",6,34,1,6,0.5,1,"0DKx3BNQ",0.379821500042453,1,"rewarded","rewarded","rewarded",TRUE,1,0.1,1,FALSE
"60","ADHD","start_with_long_delay"," test",3,7,11,1,2,1,2,0.35,0.45," left",1,0.35,0.45,0.55,0.65,"unrewarded",6,34,1,6,0.5,1,"0DKx3BNQ",0.7616709000431,0,"unrewarded","rewarded","rewarded",FALSE,1,0.1,0,FALSE
"61","ADHD","start_with_long_delay"," test",3,7,12,3,2,3,2,0.55,0.45," left",1,0.35,0.45,0.55,0.65,"unrewarded",6,34,1,6,0.5,1,"0DKx3BNQ",0.397485399851575,0,"unrewarded","unrewarded","rewarded",FALSE,1,0.1,1,FALSE
"62","ADHD","start_with_long_delay"," test",3,7,13,1,4,1,4,0.35,0.65," left",1,0.35,0.45,0.55,0.65,"unrewarded",6,34,1,6,0.5,1,"0DKx3BNQ",1.10454700002447,0,"unrewarded","unrewarded","unrewarded",FALSE,1,0.3,0,FALSE
"63","ADHD","start_with_long_delay"," test",3,7,14,2,1,2,1,0.45,0.35," left",1,0.35,0.45,0.55,0.65,"unrewarded",6,34,1,6,0.5,1,"0DKx3BNQ",1.44587579998188,0,"unrewarded","unrewarded","unrewarded",TRUE,1,0.1,1,FALSE
"64","ADHD","start_with_long_delay"," test",3,7,15,3,4,4,3,0.55,0.65," right",2,0.35,0.45,0.55,0.65,"rewarded",7,35,1,6,0.5,1,"0DKx3BNQ",0.684265600051731,0,"unrewarded","unrewarded","unrewarded",FALSE,0,0.1,0,FALSE
"65","ADHD","start_with_long_delay"," test",3,7,16,3,4,4,3,0.55,0.65," right",2,0.35,0.45,0.55,0.65,"unrewarded",7,35,1,6,0.5,1,"0DKx3BNQ",0.493815099820495,1,"rewarded","unrewarded","unrewarded",TRUE,1,0.1,0,FALSE
"66","ADHD","start_with_long_delay"," test",3,7,17,3,4,3,4,0.55,0.65," left",1,0.35,0.45,0.55,0.65,"unrewarded",7,35,1,6,0.5,1,"0DKx3BNQ",0.367770900018513,1,"unrewarded","rewarded","unrewarded",TRUE,0,0.1,0,FALSE
"67","ADHD","start_with_long_delay"," test",3,7,18,4,2,4,2,0.65,0.45," left",1,0.35,0.45,0.55,0.65,"rewarded",8,36,1,6,0.5,1,"0DKx3BNQ",0.816764699993655,0,"unrewarded","unrewarded","rewarded",FALSE,1,0.2,1,FALSE
"68","ADHD","start_with_long_delay"," test",3,7,19,4,2,4,2,0.65,0.45," left",1,0.35,0.45,0.55,0.65,"rewarded",9,37,1,6,0.5,1,"0DKx3BNQ",0.54560670000501,1,"rewarded","unrewarded","unrewarded",TRUE,1,0.2,1,FALSE
"69","ADHD","start_with_long_delay"," test",3,7,20,3,4,4,3,0.55,0.65," right",2,0.35,0.45,0.55,0.65,"rewarded",10,38,1,6,0.5,1,"0DKx3BNQ",0.599316500127316,0,"rewarded","rewarded","unrewarded",TRUE,0,0.1,0,FALSE
"70","ADHD","start_with_long_delay"," test",3,7,21,3,4,4,3,0.55,0.65," right",2,0.35,0.45,0.55,0.65,"unrewarded",10,38,1,6,0.5,1,"0DKx3BNQ",0.531923100119457,1,"rewarded","rewarded","rewarded",TRUE,1,0.1,0,FALSE
"71","ADHD","start_with_long_delay"," test",3,7,22,2,1,1,2,0.45,0.35," right",2,0.35,0.45,0.55,0.65,"rewarded",11,39,1,6,0.5,1,"0DKx3BNQ",0.987837099935859,0,"unrewarded","rewarded","rewarded",FALSE,1,0.1,1,FALSE
"72","ADHD","start_with_long_delay"," test",3,7,23,3,2,3,2,0.55,0.45," left",1,0.35,0.45,0.55,0.65,"unrewarded",11,39,1,6,0.5,1,"0DKx3BNQ",0.748156499816105,0,"rewarded","unrewarded","rewarded",TRUE,0,0.1,1,FALSE
"73","ADHD","start_with_long_delay"," test",3,7,24,2,1,2,1,0.45,0.35," left",1,0.35,0.45,0.55,0.65,"rewarded",12,40,1,6,0.5,1,"0DKx3BNQ",0.764264600118622,0,"unrewarded","rewarded","unrewarded",FALSE,1,0.1,1,FALSE
"74","ADHD","start_with_long_delay"," test",3,7,25,2,4,2,4,0.45,0.65," left",1,0.35,0.45,0.55,0.65,"unrewarded",12,40,1,6,0.5,1,"0DKx3BNQ",0.522158400155604,1,"rewarded","unrewarded","rewarded",TRUE,1,0.2,0,FALSE
"75","ADHD","start_with_long_delay"," test",4,1,1,4,2,2,4,0.65,0.45," right",2,0.35,0.45,0.55,0.65,"rewarded",1,41,1,6,0.5,1,"0DKx3BNQ",0.76590449991636,0,"unrewarded","rewarded","unrewarded",TRUE,0,0.2,1,FALSE
"76","ADHD","start_with_long_delay"," test",4,1,2,4,2,4,2,0.65,0.45," left",1,0.35,0.45,0.55,0.65,"unrewarded",1,41,1,6,0.5,1,"0DKx3BNQ",0.4269215001259,1,"rewarded","unrewarded","rewarded",TRUE,0,0.2,1,FALSE
"77","ADHD","start_with_long_delay"," test",4,1,3,1,2,1,2,0.35,0.45," left",1,0.35,0.45,0.55,0.65,"unrewarded",1,41,1,6,0.5,1,"0DKx3BNQ",0.594400499947369,0,"unrewarded","rewarded","unrewarded",FALSE,1,0.1,0,FALSE
"78","ADHD","start_with_long_delay"," test",4,1,4,1,4,4,1,0.35,0.65," right",2,0.35,0.45,0.55,0.65,"unrewarded",1,41,1,6,0.5,1,"0DKx3BNQ",0.57326430012472,1,"unrewarded","unrewarded","rewarded",TRUE,0,0.3,0,FALSE
"79","ADHD","start_with_long_delay"," test",4,1,5,3,2,3,2,0.55,0.45," left",1,0.35,0.45,0.55,0.65,"rewarded",2,42,1,6,0.5,1,"0DKx3BNQ",0.797789999982342,0,"unrewarded","unrewarded","unrewarded",FALSE,0,0.1,1,FALSE
"80","ADHD","start_with_long_delay"," test",4,1,6,1,4,4,1,0.35,0.65," right",2,0.35,0.45,0.55,0.65,"unrewarded",2,42,1,6,0.5,1,"0DKx3BNQ",0.691633299924433,0,"rewarded","unrewarded","unrewarded",FALSE,0,0.3,0,FALSE
"81","ADHD","start_with_long_delay"," test",4,1,7,2,1,2,1,0.45,0.35," left",1,0.35,0.45,0.55,0.65,"rewarded",3,43,1,6,0.5,1,"0DKx3BNQ",1.12369720009156,0,"unrewarded","rewarded","unrewarded",TRUE,0,0.1,1,FALSE
"82","ADHD","start_with_long_delay"," test",4,1,8,3,1,3,1,0.55,0.35," left",1,0.35,0.45,0.55,0.65,"unrewarded",3,43,1,6,0.5,1,"0DKx3BNQ",1.3804083999712,0,"rewarded","unrewarded","rewarded",FALSE,1,0.2,1,FALSE
"83","ADHD","start_with_long_delay"," test",4,1,9,2,1,1,2,0.45,0.35," right",2,0.35,0.45,0.55,0.65,"unrewarded",3,43,1,6,0.5,1,"0DKx3BNQ",0.790490900166333,0,"unrewarded","rewarded","unrewarded",FALSE,0,0.1,1,FALSE
"84","ADHD","start_with_long_delay"," test",4,1,10,3,2,2,3,0.55,0.45," right",2,0.35,0.45,0.55,0.65,"rewarded",4,44,1,6,0.5,1,"0DKx3BNQ",0.867481000022963,0,"unrewarded","unrewarded","rewarded",TRUE,1,0.1,1,FALSE
"85","ADHD","start_with_long_delay"," test",4,1,11,3,2,2,3,0.55,0.45," right",2,0.35,0.45,0.55,0.65,"rewarded",5,45,1,6,0.5,1,"0DKx3BNQ",0.389940000139177,1,"rewarded","unrewarded","unrewarded",TRUE,1,0.1,1,FALSE
"86","ADHD","start_with_long_delay"," test",4,1,12,3,4,4,3,0.55,0.65," right",2,0.35,0.45,0.55,0.65,"rewarded",6,46,1,6,0.5,1,"0DKx3BNQ",0.365835099946707,1,"rewarded","rewarded","unrewarded",TRUE,1,0.1,0,FALSE
"87","ADHD","start_with_long_delay"," test",4,1,13,1,4,4,1,0.35,0.65," right",2,0.35,0.45,0.55,0.65,"unrewarded",6,46,1,6,0.5,1,"0DKx3BNQ",1.10824189987034,0,"rewarded","rewarded","rewarded",FALSE,1,0.3,0,FALSE
"88","ADHD","start_with_long_delay"," test",4,1,14,2,1,1,2,0.45,0.35," right",2,0.35,0.45,0.55,0.65,"unrewarded",6,46,1,6,0.5,1,"0DKx3BNQ",1.11679339990951,0,"unrewarded","rewarded","rewarded",TRUE,1,0.1,1,FALSE
"89","ADHD","start_with_long_delay"," test",4,1,15,1,4,1,4,0.35,0.65," left",1,0.35,0.45,0.55,0.65,"unrewarded",6,46,1,6,0.5,1,"0DKx3BNQ",0.896940999897197,0,"unrewarded","unrewarded","rewarded",FALSE,0,0.3,0,FALSE
"90","ADHD","start_with_long_delay"," test",4,1,16,4,1,4,1,0.65,0.35," left",1,0.35,0.45,0.55,0.65,"rewarded",7,47,1,6,0.5,1,"0DKx3BNQ",0.509467700030655,0,"unrewarded","unrewarded","unrewarded",TRUE,1,0.3,1,FALSE
"91","ADHD","start_with_long_delay"," test",4,1,17,3,1,1,3,0.55,0.35," right",2,0.35,0.45,0.55,0.65,"unrewarded",7,47,1,6,0.5,1,"0DKx3BNQ",0.823190199909732,0,"rewarded","unrewarded","unrewarded",FALSE,0,0.2,1,FALSE
"92","ADHD","start_with_long_delay"," test",4,1,18,4,1,1,4,0.65,0.35," right",2,0.35,0.45,0.55,0.65,"rewarded",8,48,1,6,0.5,1,"0DKx3BNQ",0.393996000057086,0,"unrewarded","rewarded","unrewarded",FALSE,1,0.3,1,FALSE
"93","ADHD","start_with_long_delay"," test",4,1,19,3,4,4,3,0.55,0.65," right",2,0.35,0.45,0.55,0.65,"rewarded",9,49,1,6,0.5,1,"0DKx3BNQ",0.579802100080997,0,"rewarded","unrewarded","rewarded",TRUE,1,0.1,0,FALSE
"94","ADHD","start_with_long_delay"," test",4,1,20,4,1,4,1,0.65,0.35," left",1,0.35,0.45,0.55,0.65,"unrewarded",9,49,1,6,0.5,1,"0DKx3BNQ",0.848944899858907,0,"rewarded","rewarded","unrewarded",FALSE,0,0.3,1,FALSE
"95","ADHD","start_with_long_delay"," test",4,1,21,3,2,3,2,0.55,0.45," left",1,0.35,0.45,0.55,0.65,"unrewarded",9,49,1,6,0.5,1,"0DKx3BNQ",0.707770300097764,0,"unrewarded","rewarded","rewarded",FALSE,1,0.1,1,FALSE
"96","ADHD","start_with_long_delay"," test",4,1,22,2,1,2,1,0.45,0.35," left",1,0.35,0.45,0.55,0.65,"rewarded",10,50,1,6,0.5,1,"0DKx3BNQ",1.34103010012768,0,"unrewarded","unrewarded","rewarded",FALSE,1,0.1,1,FALSE
"97","ADHD","start_with_long_delay"," test",4,1,23,3,2,3,2,0.55,0.45," left",1,0.35,0.45,0.55,0.65,"unrewarded",10,50,1,6,0.5,1,"0DKx3BNQ",0.771793400170282,0,"rewarded","unrewarded","unrewarded",TRUE,1,0.1,1,FALSE
"98","ADHD","start_with_long_delay"," test",4,1,24,3,1,1,3,0.55,0.35," right",2,0.35,0.45,0.55,0.65,"rewarded",11,51,1,6,0.5,1,"0DKx3BNQ",0.562685400014743,1,"unrewarded","rewarded","unrewarded",TRUE,0,0.2,1,FALSE
"99","ADHD","start_with_long_delay"," test",4,1,25,2,4,2,4,0.45,0.65," left",1,0.35,0.45,0.55,0.65,"unrewarded",11,51,1,6,0.5,1,"0DKx3BNQ",0.559076400008053,0,"rewarded","unrewarded","rewarded",FALSE,0,0.2,0,FALSE
"100","ADHD","start_with_long_delay"," test",5,7,1,1,3,1,3,0.35,0.55," left",1,0.35,0.45,0.55,0.65,"rewarded",1,52,1,6,0.5,1,"0DKx3BNQ",0.613544199848548,0,"unrewarded","rewarded","unrewarded",FALSE,1,0.2,0,FALSE
"101","ADHD","start_with_long_delay"," test",5,7,2,3,2,2,3,0.55,0.45," right",2,0.35,0.45,0.55,0.65,"unrewarded",1,52,1,6,0.5,1,"0DKx3BNQ",0.633391600102186,0,"rewarded","unrewarded","rewarded",FALSE,0,0.1,1,FALSE
"102","ADHD","start_with_long_delay"," test",5,7,3,2,3,3,2,0.45,0.55," right",2,0.35,0.45,0.55,0.65,"unrewarded",1,52,1,6,0.5,1,"0DKx3BNQ",0.584884300129488,0,"unrewarded","rewarded","unrewarded",TRUE,1,0.1,0,FALSE
"103","ADHD","start_with_long_delay"," test",5,7,4,1,4,1,4,0.35,0.65," left",1,0.35,0.45,0.55,0.65,"unrewarded",1,52,1,6,0.5,1,"0DKx3BNQ",0.617937200004235,0,"unrewarded","unrewarded","rewarded",FALSE,0,0.3,0,FALSE
"104","ADHD","start_with_long_delay"," test",5,7,5,2,3,3,2,0.45,0.55," right",2,0.35,0.45,0.55,0.65,"unrewarded",1,52,1,6,0.5,1,"0DKx3BNQ",0.875123600009829,0,"unrewarded","unrewarded","unrewarded",FALSE,0,0.1,0,FALSE
"105","ADHD","start_with_long_delay"," test",5,7,6,2,3,3,2,0.45,0.55," right",2,0.35,0.45,0.55,0.65,"rewarded",2,53,1,6,0.5,1,"0DKx3BNQ",0.679513799957931,1,"unrewarded","unrewarded","unrewarded",TRUE,1,0.1,0,FALSE
"106","ADHD","start_with_long_delay"," test",5,7,7,2,3,3,2,0.45,0.55," right",2,0.35,0.45,0.55,0.65,"rewarded",3,54,1,6,0.5,1,"0DKx3BNQ",0.61366800009273,1,"rewarded","unrewarded","unrewarded",TRUE,1,0.1,0,FALSE
"107","ADHD","start_with_long_delay"," test",5,7,8,4,2,2,4,0.65,0.45," right",2,0.35,0.45,0.55,0.65,"rewarded",4,55,1,6,0.5,1,"0DKx3BNQ",0.34556689998135,0,"rewarded","rewarded","unrewarded",TRUE,1,0.2,1,FALSE
"108","ADHD","start_with_long_delay"," test",5,7,9,4,3,3,4,0.65,0.55," right",2,0.35,0.45,0.55,0.65,"unrewarded",4,55,1,6,0.5,1,"0DKx3BNQ",0.316820600070059,1,"rewarded","rewarded","rewarded",TRUE,1,0.1,1,FALSE
"109","ADHD","start_with_long_delay"," test",5,7,10,2,3,2,3,0.45,0.55," left",1,0.35,0.45,0.55,0.65,"unrewarded",4,55,1,6,0.5,1,"0DKx3BNQ",0.884629900101572,0,"unrewarded","rewarded","rewarded",FALSE,0,0.1,0,FALSE
"110","ADHD","start_with_long_delay"," test",5,7,11,4,1,4,1,0.65,0.35," left",1,0.35,0.45,0.55,0.65,"unrewarded",4,55,1,6,0.5,1,"0DKx3BNQ",0.432752700056881,0,"unrewarded","unrewarded","rewarded",FALSE,1,0.3,1,FALSE
"111","ADHD","start_with_long_delay"," test",5,7,12,4,2,2,4,0.65,0.45," right",2,0.35,0.45,0.55,0.65,"rewarded",5,56,1,6,0.5,1,"0DKx3BNQ",0.308089100057259,1,"unrewarded","unrewarded","unrewarded",TRUE,0,0.2,1,FALSE
"112","ADHD","start_with_long_delay"," test",5,7,13,4,3,3,4,0.65,0.55," right",2,0.35,0.45,0.55,0.65,"unrewarded",5,56,1,6,0.5,1,"0DKx3BNQ",0.289400100009516,1,"rewarded","unrewarded","unrewarded",TRUE,1,0.1,1,FALSE
"113","ADHD","start_with_long_delay"," test",5,7,14,2,3,3,2,0.45,0.55," right",2,0.35,0.45,0.55,0.65,"unrewarded",5,56,1,6,0.5,1,"0DKx3BNQ",0.581808000104502,0,"unrewarded","rewarded","unrewarded",FALSE,1,0.1,0,FALSE
"114","ADHD","start_with_long_delay"," test",5,7,15,4,2,2,4,0.65,0.45," right",2,0.35,0.45,0.55,0.65,"rewarded",6,57,1,6,0.5,1,"0DKx3BNQ",0.364792099921033,0,"unrewarded","unrewarded","rewarded",TRUE,1,0.2,1,FALSE
"115","ADHD","start_with_long_delay"," test",5,7,16,2,3,2,3,0.45,0.55," left",1,0.35,0.45,0.55,0.65,"rewarded",7,58,1,6,0.5,1,"0DKx3BNQ",0.597205400001258,0,"rewarded","unrewarded","unrewarded",FALSE,0,0.1,0,FALSE
"116","ADHD","start_with_long_delay"," test",5,7,17,4,3,4,3,0.65,0.55," left",1,0.35,0.45,0.55,0.65,"rewarded",8,59,1,6,0.5,1,"0DKx3BNQ",0.322272599907592,0,"rewarded","rewarded","unrewarded",FALSE,1,0.1,1,FALSE
"117","ADHD","start_with_long_delay"," test",5,7,18,4,2,2,4,0.65,0.45," right",2,0.35,0.45,0.55,0.65,"rewarded",9,60,1,6,0.5,1,"0DKx3BNQ",0.331260500010103,1,"rewarded","rewarded","rewarded",TRUE,0,0.2,1,FALSE
"118","ADHD","start_with_long_delay"," test",5,7,19,4,2,2,4,0.65,0.45," right",2,0.35,0.45,0.55,0.65,"rewarded",10,61,1,6,0.5,1,"0DKx3BNQ",0.321830099914223,1,"rewarded","rewarded","rewarded",TRUE,1,0.2,1,FALSE
"119","ADHD","start_with_long_delay"," test",5,7,20,1,3,1,3,0.35,0.55," left",1,0.35,0.45,0.55,0.65,"unrewarded",10,61,1,6,0.5,1,"0DKx3BNQ",0.34965609991923,0,"rewarded","rewarded","rewarded",FALSE,0,0.2,0,FALSE
"120","ADHD","start_with_long_delay"," test",5,7,21,1,3,3,1,0.35,0.55," right",2,0.35,0.45,0.55,0.65,"unrewarded",10,61,1,6,0.5,1,"0DKx3BNQ",0.664365499978885,1,"unrewarded","rewarded","rewarded",TRUE,0,0.2,0,FALSE
"121","ADHD","start_with_long_delay"," test",5,7,22,1,3,1,3,0.35,0.55," left",1,0.35,0.45,0.55,0.65,"unrewarded",10,61,1,6,0.5,1,"0DKx3BNQ",0.542748699896038,1,"unrewarded","unrewarded","rewarded",TRUE,0,0.2,0,FALSE
"122","ADHD","start_with_long_delay"," test",5,7,23,1,3,3,1,0.35,0.55," right",2,0.35,0.45,0.55,0.65,"rewarded",11,62,1,6,0.5,1,"0DKx3BNQ",0.458136900095269,1,"unrewarded","unrewarded","unrewarded",TRUE,0,0.2,0,FALSE
"123","ADHD","start_with_long_delay"," test",5,7,24,4,2,2,4,0.65,0.45," right",2,0.35,0.45,0.55,0.65,"unrewarded",11,62,1,6,0.5,1,"0DKx3BNQ",0.31315160007216,0,"rewarded","unrewarded","unrewarded",FALSE,1,0.2,1,FALSE
"124","ADHD","start_with_long_delay"," test",5,7,25,4,2,4,2,0.65,0.45," left",1,0.35,0.45,0.55,0.65,"rewarded",12,63,1,6,0.5,1,"0DKx3BNQ",0.336070399964228,1,"unrewarded","rewarded","unrewarded",TRUE,0,0.2,1,FALSE
"125","ADHD","start_with_long_delay"," test",6,1,1,3,1,1,3,0.55,0.35," right",2,0.35,0.45,0.55,0.65,"rewarded",1,64,1,6,0.5,1,"0DKx3BNQ",0.80969740008004,0,"rewarded","unrewarded","rewarded",FALSE,0,0.2,1,FALSE
"126","ADHD","start_with_long_delay"," test",6,1,2,3,2,2,3,0.55,0.45," right",2,0.35,0.45,0.55,0.65,"unrewarded",1,64,1,6,0.5,1,"0DKx3BNQ",0.366792300017551,1,"rewarded","rewarded","unrewarded",TRUE,1,0.1,1,FALSE
"127","ADHD","start_with_long_delay"," test",6,1,3,3,4,3,4,0.55,0.65," left",1,0.35,0.45,0.55,0.65,"rewarded",2,65,1,6,0.5,1,"0DKx3BNQ",0.404460499994457,1,"unrewarded","rewarded","rewarded",TRUE,0,0.1,0,FALSE
"128","ADHD","start_with_long_delay"," test",6,1,4,3,4,3,4,0.55,0.65," left",1,0.35,0.45,0.55,0.65,"rewarded",3,66,1,6,0.5,1,"0DKx3BNQ",0.669746000086889,1,"rewarded","unrewarded","rewarded",TRUE,1,0.1,0,FALSE
"129","ADHD","start_with_long_delay"," test",6,1,5,2,1,2,1,0.45,0.35," left",1,0.35,0.45,0.55,0.65,"unrewarded",3,66,1,6,0.5,1,"0DKx3BNQ",0.526851100148633,0,"rewarded","rewarded","unrewarded",FALSE,1,0.1,1,FALSE
"130","ADHD","start_with_long_delay"," test",6,1,6,2,1,1,2,0.45,0.35," right",2,0.35,0.45,0.55,0.65,"rewarded",4,67,1,6,0.5,1,"0DKx3BNQ",0.304165799869224,1,"unrewarded","rewarded","rewarded",TRUE,0,0.1,1,FALSE
"131","ADHD","start_with_long_delay"," test",6,1,7,2,1,2,1,0.45,0.35," left",1,0.35,0.45,0.55,0.65,"rewarded",5,68,1,6,0.5,1,"0DKx3BNQ",0.380490300012752,1,"rewarded","unrewarded","rewarded",TRUE,0,0.1,1,FALSE
"132","ADHD","start_with_long_delay"," test",6,1,8,1,4,4,1,0.35,0.65," right",2,0.35,0.45,0.55,0.65,"unrewarded",5,68,1,6,0.5,1,"0DKx3BNQ",0.890225900104269,0,"rewarded","rewarded","unrewarded",FALSE,0,0.3,0,FALSE
"133","ADHD","start_with_long_delay"," test",6,1,9,3,4,4,3,0.55,0.65," right",2,0.35,0.45,0.55,0.65,"unrewarded",5,68,1,6,0.5,1,"0DKx3BNQ",0.675088299904019,0,"unrewarded","rewarded","rewarded",FALSE,1,0.1,0,FALSE
"134","ADHD","start_with_long_delay"," test",6,1,10,3,4,4,3,0.55,0.65," right",2,0.35,0.45,0.55,0.65,"rewarded",6,69,1,6,0.5,1,"0DKx3BNQ",0.415911300107837,1,"unrewarded","unrewarded","rewarded",TRUE,1,0.1,0,FALSE
"135","ADHD","start_with_long_delay"," test",6,1,11,1,4,4,1,0.35,0.65," right",2,0.35,0.45,0.55,0.65,"unrewarded",6,69,1,6,0.5,1,"0DKx3BNQ",1.17676570010372,0,"rewarded","unrewarded","unrewarded",FALSE,1,0.3,0,FALSE
"136","ADHD","start_with_long_delay"," test",6,1,12,1,2,1,2,0.35,0.45," left",1,0.35,0.45,0.55,0.65,"unrewarded",6,69,1,6,0.5,1,"0DKx3BNQ",0.367236000020057,1,"unrewarded","rewarded","unrewarded",TRUE,0,0.1,0,FALSE
"137","ADHD","start_with_long_delay"," test",6,1,13,3,1,3,1,0.55,0.35," left",1,0.35,0.45,0.55,0.65,"rewarded",7,70,1,6,0.5,1,"0DKx3BNQ",0.680021400097758,0,"unrewarded","unrewarded","rewarded",TRUE,1,0.2,1,FALSE
"138","ADHD","start_with_long_delay"," test",6,1,14,1,4,1,4,0.35,0.65," left",1,0.35,0.45,0.55,0.65,"unrewarded",7,70,1,6,0.5,1,"0DKx3BNQ",1.2286300000269,0,"rewarded","unrewarded","unrewarded",FALSE,1,0.3,0,FALSE
"139","ADHD","start_with_long_delay"," test",6,1,15,2,3,2,3,0.45,0.55," left",1,0.35,0.45,0.55,0.65,"unrewarded",7,70,1,6,0.5,1,"0DKx3BNQ",0.541883100057021,0,"unrewarded","rewarded","unrewarded",FALSE,1,0.1,0,FALSE
"140","ADHD","start_with_long_delay"," test",6,1,16,2,1,1,2,0.45,0.35," right",2,0.35,0.45,0.55,0.65,"rewarded",8,71,1,6,0.5,1,"0DKx3BNQ",0.259911400033161,1,"unrewarded","unrewarded","rewarded",TRUE,0,0.1,1,FALSE
"141","ADHD","start_with_long_delay"," test",6,1,17,3,4,3,4,0.55,0.65," left",1,0.35,0.45,0.55,0.65,"rewarded",9,72,1,6,0.5,1,"0DKx3BNQ",0.547382300021127,0,"rewarded","unrewarded","unrewarded",FALSE,0,0.1,0,FALSE
"142","ADHD","start_with_long_delay"," test",6,1,18,3,1,1,3,0.55,0.35," right",2,0.35,0.45,0.55,0.65,"rewarded",10,73,1,6,0.5,1,"0DKx3BNQ",1.14576699980535,1,"rewarded","rewarded","unrewarded",TRUE,0,0.2,1,FALSE
"143","ADHD","start_with_long_delay"," test",6,1,19,2,3,2,3,0.45,0.55," left",1,0.35,0.45,0.55,0.65,"rewarded",11,74,1,6,0.5,1,"0DKx3BNQ",0.296355200000107,0,"rewarded","rewarded","rewarded",TRUE,0,0.1,0,FALSE
"144","ADHD","start_with_long_delay"," test",6,1,20,3,4,3,4,0.55,0.65," left",1,0.35,0.45,0.55,0.65,"unrewarded",11,74,1,6,0.5,1,"0DKx3BNQ",0.613119299989194,0,"rewarded","rewarded","rewarded",FALSE,1,0.1,0,FALSE
"145","ADHD","start_with_long_delay"," test",6,1,21,2,3,3,2,0.45,0.55," right",2,0.35,0.45,0.55,0.65,"unrewarded",11,74,1,6,0.5,1,"0DKx3BNQ",0.262120899977162,0,"unrewarded","rewarded","rewarded",TRUE,0,0.1,0,FALSE
"146","ADHD","start_with_long_delay"," test",6,1,22,2,3,2,3,0.45,0.55," left",1,0.35,0.45,0.55,0.65,"rewarded",12,75,1,6,0.5,1,"0DKx3BNQ",0.277003000024706,1,"unrewarded","unrewarded","rewarded",TRUE,0,0.1,0,FALSE
"147","ADHD","start_with_long_delay"," test",6,1,23,3,4,4,3,0.55,0.65," right",2,0.35,0.45,0.55,0.65,"rewarded",13,76,1,6,0.5,1,"0DKx3BNQ",0.498245200142264,0,"rewarded","unrewarded","unrewarded",FALSE,0,0.1,0,FALSE
"148","ADHD","start_with_long_delay"," test",6,1,24,2,3,3,2,0.45,0.55," right",2,0.35,0.45,0.55,0.65,"rewarded",14,77,1,6,0.5,1,"0DKx3BNQ",0.298933999845758,0,"rewarded","rewarded","unrewarded",TRUE,1,0.1,0,FALSE
"149","ADHD","start_with_long_delay"," test",6,1,25,3,4,3,4,0.55,0.65," left",1,0.35,0.45,0.55,0.65,"rewarded",15,78,1,6,0.5,1,"0DKx3BNQ",0.547757599968463,0,"rewarded","rewarded","rewarded",FALSE,0,0.1,0,FALSE
"150","ADHD","start_with_long_delay"," test",7,7,1,3,1,1,3,0.55,0.35," right",2,0.35,0.45,0.55,0.65,"unrewarded",0,78,1,6,0.5,1,"0DKx3BNQ",0.457407600013539,1,"rewarded","rewarded","rewarded",TRUE,0,0.2,1,FALSE
"151","ADHD","start_with_long_delay"," test",7,7,2,3,4,4,3,0.55,0.65," right",2,0.35,0.45,0.55,0.65,"rewarded",1,79,1,6,0.5,1,"0DKx3BNQ",0.621150800026953,1,"unrewarded","rewarded","rewarded",TRUE,1,0.1,0,FALSE
"152","ADHD","start_with_long_delay"," test",7,7,3,2,4,2,4,0.45,0.65," left",1,0.35,0.45,0.55,0.65,"unrewarded",1,79,1,6,0.5,1,"0DKx3BNQ",0.780141499824822,0,"rewarded","unrewarded","rewarded",FALSE,0,0.2,0,FALSE
"153","ADHD","start_with_long_delay"," test",7,7,4,2,3,2,3,0.45,0.55," left",1,0.35,0.45,0.55,0.65,"unrewarded",1,79,1,6,0.5,1,"0DKx3BNQ",0.48888189997524,1,"unrewarded","rewarded","unrewarded",TRUE,1,0.1,0,FALSE
"154","ADHD","start_with_long_delay"," test",7,7,5,3,1,1,3,0.55,0.35," right",2,0.35,0.45,0.55,0.65,"rewarded",2,80,1,6,0.5,1,"0DKx3BNQ",0.46639890014194,0,"unrewarded","unrewarded","rewarded",FALSE,0,0.2,1,FALSE
"155","ADHD","start_with_long_delay"," test",7,7,6,2,1,1,2,0.45,0.35," right",2,0.35,0.45,0.55,0.65,"unrewarded",2,80,1,6,0.5,1,"0DKx3BNQ",0.729315800126642,0,"rewarded","unrewarded","unrewarded",FALSE,1,0.1,1,FALSE
"156","ADHD","start_with_long_delay"," test",7,7,7,3,4,3,4,0.55,0.65," left",1,0.35,0.45,0.55,0.65,"rewarded",3,81,1,6,0.5,1,"0DKx3BNQ",0.464681699872017,0,"unrewarded","rewarded","unrewarded",FALSE,0,0.1,0,FALSE
"157","ADHD","start_with_long_delay"," test",7,7,8,3,1,3,1,0.55,0.35," left",1,0.35,0.45,0.55,0.65,"unrewarded",3,81,1,6,0.5,1,"0DKx3BNQ",0.46249289996922,1,"rewarded","unrewarded","rewarded",TRUE,1,0.2,1,FALSE
"158","ADHD","start_with_long_delay"," test",7,7,9,3,1,1,3,0.55,0.35," right",2,0.35,0.45,0.55,0.65,"unrewarded",3,81,1,6,0.5,1,"0DKx3BNQ",0.587608400033787,1,"unrewarded","rewarded","unrewarded",TRUE,0,0.2,1,FALSE
"159","ADHD","start_with_long_delay"," test",7,7,10,3,2,2,3,0.55,0.45," right",2,0.35,0.45,0.55,0.65,"rewarded",4,82,1,6,0.5,1,"0DKx3BNQ",0.318326399894431,1,"unrewarded","unrewarded","rewarded",TRUE,1,0.1,1,FALSE
"160","ADHD","start_with_long_delay"," test",7,7,11,3,4,3,4,0.55,0.65," left",1,0.35,0.45,0.55,0.65,"rewarded",5,83,1,6,0.5,1,"0DKx3BNQ",0.301527000032365,1,"rewarded","unrewarded","unrewarded",TRUE,0,0.1,0,FALSE
"161","ADHD","start_with_long_delay"," test",7,7,12,3,2,2,3,0.55,0.45," right",2,0.35,0.45,0.55,0.65,"unrewarded",5,83,1,6,0.5,1,"0DKx3BNQ",0.297977700131014,1,"rewarded","rewarded","unrewarded",TRUE,0,0.1,1,FALSE
"162","ADHD","start_with_long_delay"," test",7,7,13,3,1,1,3,0.55,0.35," right",2,0.35,0.45,0.55,0.65,"unrewarded",5,83,1,6,0.5,1,"0DKx3BNQ",0.243726700078696,1,"unrewarded","rewarded","rewarded",TRUE,1,0.2,1,FALSE
"163","ADHD","start_with_long_delay"," test",7,7,14,3,2,3,2,0.55,0.45," left",1,0.35,0.45,0.55,0.65,"rewarded",6,84,1,6,0.5,1,"0DKx3BNQ",0.298129299888387,1,"unrewarded","unrewarded","rewarded",TRUE,0,0.1,1,FALSE
"164","ADHD","start_with_long_delay"," test",7,7,15,4,2,4,2,0.65,0.45," left",1,0.35,0.45,0.55,0.65,"unrewarded",6,84,1,6,0.5,1,"0DKx3BNQ",0.915030899923295,0,"rewarded","unrewarded","unrewarded",FALSE,1,0.2,1,FALSE
"165","ADHD","start_with_long_delay"," test",7,7,16,4,2,2,4,0.65,0.45," right",2,0.35,0.45,0.55,0.65,"rewarded",7,85,1,6,0.5,1,"0DKx3BNQ",0.830885700182989,1,"unrewarded","rewarded","unrewarded",TRUE,0,0.2,1,FALSE
"166","ADHD","start_with_long_delay"," test",7,7,17,3,2,3,2,0.55,0.45," left",1,0.35,0.45,0.55,0.65,"rewarded",8,86,1,6,0.5,1,"0DKx3BNQ",0.553105700062588,0,"rewarded","unrewarded","rewarded",FALSE,0,0.1,1,FALSE
"167","ADHD","start_with_long_delay"," test",7,7,18,1,2,2,1,0.35,0.45," right",2,0.35,0.45,0.55,0.65,"rewarded",9,87,1,6,0.5,1,"0DKx3BNQ",0.847950299968943,0,"rewarded","rewarded","unrewarded",FALSE,0,0.1,0,FALSE
"168","ADHD","start_with_long_delay"," test",7,7,19,3,4,4,3,0.55,0.65," right",2,0.35,0.45,0.55,0.65,"unrewarded",9,87,1,6,0.5,1,"0DKx3BNQ",0.259645800106227,0,"rewarded","rewarded","rewarded",FALSE,1,0.1,0,FALSE
"169","ADHD","start_with_long_delay"," test",7,7,20,3,4,4,3,0.55,0.65," right",2,0.35,0.45,0.55,0.65,"rewarded",10,88,1,6,0.5,1,"0DKx3BNQ",0.293255199911073,1,"unrewarded","rewarded","rewarded",TRUE,1,0.1,0,FALSE
"170","ADHD","start_with_long_delay"," test",7,7,21,3,2,3,2,0.55,0.45," left",1,0.35,0.45,0.55,0.65,"unrewarded",10,88,1,6,0.5,1,"0DKx3BNQ",0.6202481999062,1,"rewarded","unrewarded","rewarded",TRUE,0,0.1,1,FALSE
"171","ADHD","start_with_long_delay"," test",7,7,22,3,4,4,3,0.55,0.65," right",2,0.35,0.45,0.55,0.65,"unrewarded",10,88,1,6,0.5,1,"0DKx3BNQ",0.266845899866894,1,"unrewarded","rewarded","unrewarded",TRUE,0,0.1,0,FALSE
"172","ADHD","start_with_long_delay"," test",7,7,23,2,4,2,4,0.45,0.65," left",1,0.35,0.45,0.55,0.65,"unrewarded",10,88,1,6,0.5,1,"0DKx3BNQ",0.618199900025502,0,"unrewarded","unrewarded","rewarded",FALSE,0,0.2,0,FALSE
"173","ADHD","start_with_long_delay"," test",7,7,24,3,1,1,3,0.55,0.35," right",2,0.35,0.45,0.55,0.65,"unrewarded",10,88,1,6,0.5,1,"0DKx3BNQ",0.44169280002825,0,"unrewarded","unrewarded","unrewarded",FALSE,0,0.2,1,FALSE
"174","ADHD","start_with_long_delay"," test",7,7,25,3,2,3,2,0.55,0.45," left",1,0.35,0.45,0.55,0.65,"rewarded",11,89,1,6,0.5,1,"0DKx3BNQ",0.348650099942461,1,"unrewarded","unrewarded","unrewarded",TRUE,0,0.1,1,FALSE
"175","ADHD","start_with_long_delay"," test",8,1,1,3,1,1,3,0.55,0.35," right",2,0.35,0.45,0.55,0.65,"rewarded",1,90,1,6,0.5,1,"0DKx3BNQ",0.740868099965155,1,"rewarded","unrewarded","unrewarded",TRUE,0,0.2,1,FALSE
"176","ADHD","start_with_long_delay"," test",8,1,2,3,4,3,4,0.55,0.65," left",1,0.35,0.45,0.55,0.65,"rewarded",2,91,1,6,0.5,1,"0DKx3BNQ",0.319244399899617,1,"rewarded","rewarded","unrewarded",TRUE,0,0.1,0,FALSE
"177","ADHD","start_with_long_delay"," test",8,1,3,3,1,3,1,0.55,0.35," left",1,0.35,0.45,0.55,0.65,"unrewarded",2,91,1,6,0.5,1,"0DKx3BNQ",0.428544699912891,1,"rewarded","rewarded","rewarded",TRUE,1,0.2,1,FALSE
"178","ADHD","start_with_long_delay"," test",8,1,4,3,4,3,4,0.55,0.65," left",1,0.35,0.45,0.55,0.65,"rewarded",3,92,1,6,0.5,1,"0DKx3BNQ",0.343834399944171,1,"unrewarded","rewarded","rewarded",TRUE,1,0.1,0,FALSE
"179","ADHD","start_with_long_delay"," test",8,1,5,3,1,1,3,0.55,0.35," right",2,0.35,0.45,0.55,0.65,"rewarded",4,93,1,6,0.5,1,"0DKx3BNQ",0.299353700131178,1,"rewarded","unrewarded","rewarded",TRUE,0,0.2,1,FALSE
"180","ADHD","start_with_long_delay"," test",8,1,6,3,1,1,3,0.55,0.35," right",2,0.35,0.45,0.55,0.65,"unrewarded",4,93,1,6,0.5,1,"0DKx3BNQ",0.339449499966577,1,"rewarded","rewarded","unrewarded",TRUE,1,0.2,1,FALSE
"181","ADHD","start_with_long_delay"," test",8,1,7,1,4,4,1,0.35,0.65," right",2,0.35,0.45,0.55,0.65,"unrewarded",4,93,1,6,0.5,1,"0DKx3BNQ",0.335946600185707,0,"unrewarded","rewarded","rewarded",FALSE,1,0.3,0,FALSE
"182","ADHD","start_with_long_delay"," test",8,1,8,3,4,3,4,0.55,0.65," left",1,0.35,0.45,0.55,0.65,"rewarded",5,94,1,6,0.5,1,"0DKx3BNQ",0.325840099947527,0,"unrewarded","unrewarded","rewarded",FALSE,0,0.1,0,FALSE
"183","ADHD","start_with_long_delay"," test",8,1,9,1,4,1,4,0.35,0.65," left",1,0.35,0.45,0.55,0.65,"unrewarded",5,94,1,6,0.5,1,"0DKx3BNQ",0.770375399850309,0,"rewarded","unrewarded","unrewarded",FALSE,1,0.3,0,FALSE
"184","ADHD","start_with_long_delay"," test",8,1,10,4,1,4,1,0.65,0.35," left",1,0.35,0.45,0.55,0.65,"unrewarded",5,94,1,6,0.5,1,"0DKx3BNQ",0.920481099979952,0,"unrewarded","rewarded","unrewarded",TRUE,1,0.3,1,FALSE
"185","ADHD","start_with_long_delay"," test",8,1,11,1,3,1,3,0.35,0.55," left",1,0.35,0.45,0.55,0.65,"rewarded",6,95,1,6,0.5,1,"0DKx3BNQ",0.392503099981695,0,"unrewarded","unrewarded","rewarded",FALSE,1,0.2,0,FALSE
"186","ADHD","start_with_long_delay"," test",8,1,12,1,2,2,1,0.35,0.45," right",2,0.35,0.45,0.55,0.65,"unrewarded",6,95,1,6,0.5,1,"0DKx3BNQ",0.477237999904901,1,"rewarded","unrewarded","unrewarded",TRUE,0,0.1,0,FALSE
"187","ADHD","start_with_long_delay"," test",8,1,13,3,4,3,4,0.55,0.65," left",1,0.35,0.45,0.55,0.65,"unrewarded",6,95,1,6,0.5,1,"0DKx3BNQ",0.328264400130138,0,"unrewarded","rewarded","unrewarded",FALSE,0,0.1,0,FALSE
"188","ADHD","start_with_long_delay"," test",8,1,14,1,4,1,4,0.35,0.65," left",1,0.35,0.45,0.55,0.65,"unrewarded",6,95,1,6,0.5,1,"0DKx3BNQ",0.340240100165829,0,"unrewarded","unrewarded","rewarded",FALSE,1,0.3,0,FALSE
"189","ADHD","start_with_long_delay"," test",8,1,15,1,2,1,2,0.35,0.45," left",1,0.35,0.45,0.55,0.65,"rewarded",7,96,1,6,0.5,1,"0DKx3BNQ",0.395512499846518,1,"unrewarded","unrewarded","unrewarded",TRUE,1,0.1,0,FALSE
"190","ADHD","start_with_long_delay"," test",8,1,16,1,4,1,4,0.35,0.65," left",1,0.35,0.45,0.55,0.65,"rewarded",8,97,1,6,0.5,1,"0DKx3BNQ",0.360351999988779,1,"rewarded","unrewarded","unrewarded",TRUE,1,0.3,0,FALSE
"191","ADHD","start_with_long_delay"," test",8,1,17,1,4,1,4,0.35,0.65," left",1,0.35,0.45,0.55,0.65,"rewarded",9,98,1,6,0.5,1,"0DKx3BNQ",0.561381899984553,1,"rewarded","rewarded","unrewarded",TRUE,1,0.3,0,FALSE
"192","ADHD","start_with_long_delay"," test",8,1,18,3,1,1,3,0.55,0.35," right",2,0.35,0.45,0.55,0.65,"rewarded",10,99,1,6,0.5,1,"0DKx3BNQ",0.452728499891236,0,"rewarded","rewarded","rewarded",TRUE,0,0.2,1,FALSE
"193","ADHD","start_with_long_delay"," test",8,1,19,3,1,3,1,0.55,0.35," left",1,0.35,0.45,0.55,0.65,"unrewarded",10,99,1,6,0.5,1,"0DKx3BNQ",0.344416500069201,1,"rewarded","rewarded","rewarded",TRUE,0,0.2,1,FALSE
"194","ADHD","start_with_long_delay"," test",8,1,20,4,2,2,4,0.65,0.45," right",2,0.35,0.45,0.55,0.65,"rewarded",11,100,1,6,0.5,1,"0DKx3BNQ",0.662568700034171,0,"unrewarded","rewarded","rewarded",FALSE,0,0.2,1,FALSE
"195","ADHD","start_with_long_delay"," test",8,1,21,4,2,4,2,0.65,0.45," left",1,0.35,0.45,0.55,0.65,"rewarded",12,101,1,6,0.5,1,"0DKx3BNQ",0.400942400097847,1,"rewarded","unrewarded","rewarded",TRUE,0,0.2,1,FALSE
"196","ADHD","start_with_long_delay"," test",8,1,22,3,4,3,4,0.55,0.65," left",1,0.35,0.45,0.55,0.65,"unrewarded",12,101,1,6,0.5,1,"0DKx3BNQ",0.442587900208309,0,"rewarded","rewarded","unrewarded",TRUE,1,0.1,0,FALSE
"197","ADHD","start_with_long_delay"," test",8,1,23,3,1,3,1,0.55,0.35," left",1,0.35,0.45,0.55,0.65,"rewarded",13,102,1,6,0.5,1,"0DKx3BNQ",0.368724799947813,1,"unrewarded","rewarded","rewarded",TRUE,1,0.2,1,FALSE
"198","ADHD","start_with_long_delay"," test",8,1,24,1,2,2,1,0.35,0.45," right",2,0.35,0.45,0.55,0.65,"unrewarded",13,102,1,6,0.5,1,"0DKx3BNQ",0.370439399965107,0,"rewarded","unrewarded","rewarded",FALSE,0,0.1,0,FALSE
"199","ADHD","start_with_long_delay"," test",8,1,25,1,2,1,2,0.35,0.45," left",1,0.35,0.45,0.55,0.65,"rewarded",14,103,1,6,0.5,1,"0DKx3BNQ",0.360417800024152,1,"unrewarded","rewarded","unrewarded",TRUE,0,0.1,0,FALSE
"200","control","start_with_long_delay"," test",1,7,1,3,4,3,4,0.55,0.65," left",1,0.35,0.45,0.55,0.65,"rewarded",1,1,1,6,0.5,1,"3f5MYPfx",0.681591100001242,0,"rewarded","unrewarded","rewarded",FALSE,1,0.1,0,FALSE
"201","control","start_with_long_delay"," test",1,7,2,1,4,4,1,0.35,0.65," right",2,0.35,0.45,0.55,0.65,"unrewarded",1,1,1,6,0.5,1,"3f5MYPfx",0.637272100007976,0,"rewarded","rewarded","unrewarded",FALSE,0,0.3,0,FALSE
"202","control","start_with_long_delay"," test",1,7,3,3,1,3,1,0.55,0.35," left",1,0.35,0.45,0.55,0.65,"unrewarded",1,1,1,6,0.5,1,"3f5MYPfx",0.509973799998988,0,"unrewarded","rewarded","rewarded",TRUE,0,0.2,1,FALSE
"203","control","start_with_long_delay"," test",1,7,4,1,4,4,1,0.35,0.65," right",2,0.35,0.45,0.55,0.65,"unrewarded",1,1,1,6,0.5,1,"3f5MYPfx",0.348073000001023,0,"unrewarded","unrewarded","rewarded",FALSE,0,0.3,0,FALSE
"204","control","start_with_long_delay"," test",1,7,5,2,1,1,2,0.45,0.35," right",2,0.35,0.45,0.55,0.65,"unrewarded",1,1,1,6,0.5,1,"3f5MYPfx",0.710176699998556,0,"unrewarded","unrewarded","unrewarded",TRUE,1,0.1,1,FALSE
"205","control","start_with_long_delay"," test",1,7,6,2,1,1,2,0.45,0.35," right",2,0.35,0.45,0.55,0.65,"unrewarded",1,1,1,6,0.5,1,"3f5MYPfx",0.839062600003672,1,"unrewarded","unrewarded","unrewarded",TRUE,1,0.1,1,FALSE
"206","control","start_with_long_delay"," test",1,7,7,3,4,3,4,0.55,0.65," left",1,0.35,0.45,0.55,0.65,"unrewarded",1,1,1,6,0.5,1,"3f5MYPfx",0.493105500005186,0,"unrewarded","unrewarded","unrewarded",FALSE,0,0.1,0,FALSE
"207","control","start_with_long_delay"," test",1,7,8,2,4,2,4,0.45,0.65," left",1,0.35,0.45,0.55,0.65,"unrewarded",1,1,1,6,0.5,1,"3f5MYPfx",0.686731800000416,0,"unrewarded","unrewarded","unrewarded",FALSE,1,0.2,0,FALSE
"208","control","start_with_long_delay"," test",1,7,9,4,2,2,4,0.65,0.45," right",2,0.35,0.45,0.55,0.65,"rewarded",2,2,1,6,0.5,1,"3f5MYPfx",0.435866600004374,0,"unrewarded","unrewarded","unrewarded",TRUE,0,0.2,1,FALSE
"209","control","start_with_long_delay"," test",1,7,10,4,3,3,4,0.65,0.55," right",2,0.35,0.45,0.55,0.65,"rewarded",3,3,1,6,0.5,1,"3f5MYPfx",0.685446599993156,1,"rewarded","unrewarded","unrewarded",TRUE,1,0.1,1,FALSE
"210","control","start_with_long_delay"," test",1,7,11,1,3,3,1,0.35,0.55," right",2,0.35,0.45,0.55,0.65,"unrewarded",3,3,1,6,0.5,1,"3f5MYPfx",1.05079900000419,0,"rewarded","rewarded","unrewarded",FALSE,1,0.2,0,FALSE
"211","control","start_with_long_delay"," test",1,7,12,4,2,2,4,0.65,0.45," right",2,0.35,0.45,0.55,0.65,"unrewarded",3,3,1,6,0.5,1,"3f5MYPfx",1.42859759999556,0,"unrewarded","rewarded","rewarded",FALSE,1,0.2,1,FALSE
"212","control","start_with_long_delay"," test",1,7,13,3,1,1,3,0.55,0.35," right",2,0.35,0.45,0.55,0.65,"rewarded",4,4,1,6,0.5,1,"3f5MYPfx",1.25177580000309,0,"unrewarded","unrewarded","rewarded",FALSE,1,0.2,1,FALSE
"213","control","start_with_long_delay"," test",1,7,14,4,1,4,1,0.65,0.35," left",1,0.35,0.45,0.55,0.65,"rewarded",5,5,1,6,0.5,1,"3f5MYPfx",0.853320099995472,0,"rewarded","unrewarded","unrewarded",FALSE,0,0.3,1,FALSE
"214","control","start_with_long_delay"," test",1,7,15,4,2,2,4,0.65,0.45," right",2,0.35,0.45,0.55,0.65,"rewarded",6,6,1,6,0.5,1,"3f5MYPfx",0.711920000001555,1,"rewarded","rewarded","unrewarded",TRUE,0,0.2,1,FALSE
"215","control","start_with_long_delay"," test",1,7,17,4,2,2,4,0.65,0.45," right",2,0.35,0.45,0.55,0.65,"unrewarded",7,7,1,6,0.5,1,"3f5MYPfx",0.934481000003871,0,"rewarded","rewarded","rewarded",FALSE,0,0.2,1,FALSE
"216","control","start_with_long_delay"," test",1,7,18,2,3,2,3,0.45,0.55," left",1,0.35,0.45,0.55,0.65,"unrewarded",7,7,1,6,0.5,1,"3f5MYPfx",0.821021499999915,0,"unrewarded","rewarded","rewarded",FALSE,0,0.1,0,FALSE
"217","control","start_with_long_delay"," test",1,7,19,3,1,1,3,0.55,0.35," right",2,0.35,0.45,0.55,0.65,"unrewarded",7,7,1,6,0.5,1,"3f5MYPfx",0.399612100009108,0,"unrewarded","unrewarded","rewarded",FALSE,0,0.2,1,FALSE
"218","control","start_with_long_delay"," test",1,7,20,2,3,3,2,0.45,0.55," right",2,0.35,0.45,0.55,0.65,"rewarded",8,8,1,6,0.5,1,"3f5MYPfx",1.13435789999494,0,"unrewarded","unrewarded","unrewarded",TRUE,1,0.1,0,FALSE
"219","control","start_with_long_delay"," test",1,7,21,2,1,2,1,0.45,0.35," left",1,0.35,0.45,0.55,0.65,"unrewarded",8,8,1,6,0.5,1,"3f5MYPfx",0.470864100003382,1,"rewarded","unrewarded","unrewarded",TRUE,0,0.1,1,FALSE
"220","control","start_with_long_delay"," test",1,7,22,2,1,1,2,0.45,0.35," right",2,0.35,0.45,0.55,0.65,"unrewarded",8,8,1,6,0.5,1,"3f5MYPfx",0.594111099999282,1,"unrewarded","rewarded","unrewarded",TRUE,0,0.1,1,FALSE
"221","control","start_with_long_delay"," test",1,7,23,4,1,4,1,0.65,0.35," left",1,0.35,0.45,0.55,0.65,"rewarded",9,9,1,6,0.5,1,"3f5MYPfx",0.552077100001043,0,"unrewarded","unrewarded","rewarded",FALSE,0,0.3,1,FALSE
"222","control","start_with_long_delay"," test",1,7,24,1,2,2,1,0.35,0.45," right",2,0.35,0.45,0.55,0.65,"unrewarded",9,9,1,6,0.5,1,"3f5MYPfx",1.03529210000124,0,"rewarded","unrewarded","unrewarded",FALSE,0,0.1,0,FALSE
"223","control","start_with_long_delay"," test",1,7,25,4,3,3,4,0.65,0.55," right",2,0.35,0.45,0.55,0.65,"rewarded",10,10,1,6,0.5,1,"3f5MYPfx",0.958754999999655,0,"unrewarded","rewarded","unrewarded",FALSE,1,0.1,1,FALSE
"224","control","start_with_long_delay"," test",2,1,1,2,1,1,2,0.45,0.35," right",2,0.35,0.45,0.55,0.65,"rewarded",1,11,1,6,0.5,1,"3f5MYPfx",0.992075699992711,0,"rewarded","unrewarded","rewarded",FALSE,1,0.1,1,FALSE
"225","control","start_with_long_delay"," test",2,1,2,3,4,4,3,0.55,0.65," right",2,0.35,0.45,0.55,0.65,"rewarded",2,12,1,6,0.5,1,"3f5MYPfx",0.98887200000172,0,"rewarded","rewarded","unrewarded",FALSE,1,0.1,0,FALSE
"226","control","start_with_long_delay"," test",2,1,3,1,4,1,4,0.35,0.65," left",1,0.35,0.45,0.55,0.65,"unrewarded",2,12,1,6,0.5,1,"3f5MYPfx",0.398059400002239,0,"rewarded","rewarded","rewarded",FALSE,0,0.3,0,FALSE
"227","control","start_with_long_delay"," test",2,1,4,3,1,3,1,0.55,0.35," left",1,0.35,0.45,0.55,0.65,"rewarded",3,13,1,6,0.5,1,"3f5MYPfx",0.663219800000661,0,"unrewarded","rewarded","rewarded",TRUE,1,0.2,1,FALSE
"228","control","start_with_long_delay"," test",2,1,5,3,1,3,1,0.55,0.35," left",1,0.35,0.45,0.55,0.65,"unrewarded",3,13,1,6,0.5,1,"3f5MYPfx",0.601538100003381,1,"rewarded","unrewarded","rewarded",TRUE,1,0.2,1,FALSE
"229","control","start_with_long_delay"," test",2,1,6,3,1,1,3,0.55,0.35," right",2,0.35,0.45,0.55,0.65,"rewarded",4,14,1,6,0.5,1,"3f5MYPfx",0.85493800000404,1,"unrewarded","rewarded","unrewarded",TRUE,0,0.2,1,FALSE
"230","control","start_with_long_delay"," test",2,1,7,2,4,2,4,0.45,0.65," left",1,0.35,0.45,0.55,0.65,"unrewarded",4,14,1,6,0.5,1,"3f5MYPfx",0.608703299993067,0,"rewarded","unrewarded","rewarded",FALSE,0,0.2,0,FALSE
"231","control","start_with_long_delay"," test",2,1,8,3,1,3,1,0.55,0.35," left",1,0.35,0.45,0.55,0.65,"rewarded",5,15,1,6,0.5,1,"3f5MYPfx",0.632787700000335,0,"unrewarded","rewarded","unrewarded",FALSE,1,0.2,1,FALSE
"232","control","start_with_long_delay"," test",2,1,9,3,1,3,1,0.55,0.35," left",1,0.35,0.45,0.55,0.65,"unrewarded",5,15,1,6,0.5,1,"3f5MYPfx",0.460213900005328,1,"rewarded","unrewarded","rewarded",TRUE,1,0.2,1,FALSE
"233","control","start_with_long_delay"," test",2,1,10,3,1,1,3,0.55,0.35," right",2,0.35,0.45,0.55,0.65,"rewarded",6,16,1,6,0.5,1,"3f5MYPfx",0.517706600003294,1,"unrewarded","rewarded","unrewarded",TRUE,0,0.2,1,FALSE
"234","control","start_with_long_delay"," test",2,1,11,2,1,2,1,0.45,0.35," left",1,0.35,0.45,0.55,0.65,"unrewarded",6,16,1,6,0.5,1,"3f5MYPfx",1.11299380000855,0,"rewarded","unrewarded","rewarded",FALSE,0,0.1,1,FALSE
"235","control","start_with_long_delay"," test",2,1,12,3,1,1,3,0.55,0.35," right",2,0.35,0.45,0.55,0.65,"rewarded",7,17,1,6,0.5,1,"3f5MYPfx",0.506369199996698,0,"unrewarded","rewarded","unrewarded",FALSE,0,0.2,1,FALSE
"236","control","start_with_long_delay"," test",2,1,13,3,1,3,1,0.55,0.35," left",1,0.35,0.45,0.55,0.65,"rewarded",8,18,1,6,0.5,1,"3f5MYPfx",0.597477800009074,1,"rewarded","unrewarded","rewarded",TRUE,0,0.2,1,FALSE
"237","control","start_with_long_delay"," test",2,1,14,3,4,3,4,0.55,0.65," left",1,0.35,0.45,0.55,0.65,"rewarded",9,19,1,6,0.5,1,"3f5MYPfx",1.91908740000508,1,"rewarded","rewarded","unrewarded",TRUE,1,0.1,0,FALSE
"238","control","start_with_long_delay"," test",2,1,15,2,3,3,2,0.45,0.55," right",2,0.35,0.45,0.55,0.65,"unrewarded",9,19,1,6,0.5,1,"3f5MYPfx",1.57247610000195,0,"rewarded","rewarded","rewarded",TRUE,0,0.1,0,FALSE
"239","control","start_with_long_delay"," test",2,1,16,2,4,4,2,0.45,0.65," right",2,0.35,0.45,0.55,0.65,"unrewarded",9,19,1,6,0.5,1,"3f5MYPfx",0.883404600012,1,"unrewarded","rewarded","rewarded",TRUE,1,0.2,0,FALSE
"240","control","start_with_long_delay"," test",2,1,17,4,3,3,4,0.65,0.55," right",2,0.35,0.45,0.55,0.65,"rewarded",10,20,1,6,0.5,1,"3f5MYPfx",0.740380200004438,0,"unrewarded","unrewarded","rewarded",FALSE,1,0.1,1,FALSE
"241","control","start_with_long_delay"," test",2,1,18,2,1,2,1,0.45,0.35," left",1,0.35,0.45,0.55,0.65,"rewarded",11,21,1,6,0.5,1,"3f5MYPfx",1.62642149999738,0,"rewarded","unrewarded","unrewarded",FALSE,0,0.1,1,FALSE
"242","control","start_with_long_delay"," test",2,1,19,4,2,2,4,0.65,0.45," right",2,0.35,0.45,0.55,0.65,"unrewarded",11,21,1,6,0.5,1,"3f5MYPfx",1.03358930000104,0,"rewarded","rewarded","unrewarded",TRUE,0,0.2,1,FALSE
"243","control","start_with_long_delay"," test",2,1,20,3,1,1,3,0.55,0.35," right",2,0.35,0.45,0.55,0.65,"unrewarded",11,21,1,6,0.5,1,"3f5MYPfx",0.621205000003101,0,"unrewarded","rewarded","rewarded",FALSE,1,0.2,1,FALSE
"244","control","start_with_long_delay"," test",2,1,21,2,1,2,1,0.45,0.35," left",1,0.35,0.45,0.55,0.65,"unrewarded",11,21,1,6,0.5,1,"3f5MYPfx",0.801938000004156,0,"unrewarded","unrewarded","rewarded",FALSE,0,0.1,1,FALSE
"245","control","start_with_long_delay"," test",2,1,22,4,2,4,2,0.65,0.45," left",1,0.35,0.45,0.55,0.65,"unrewarded",11,21,1,6,0.5,1,"3f5MYPfx",0.534127299993997,0,"unrewarded","unrewarded","unrewarded",TRUE,1,0.2,1,FALSE
"246","control","start_with_long_delay"," test",2,1,23,3,2,3,2,0.55,0.45," left",1,0.35,0.45,0.55,0.65,"rewarded",12,22,1,6,0.5,1,"3f5MYPfx",0.542021600005683,0,"unrewarded","unrewarded","unrewarded",FALSE,1,0.1,1,FALSE
"247","control","start_with_long_delay"," test",2,1,24,3,1,1,3,0.55,0.35," right",2,0.35,0.45,0.55,0.65,"rewarded",13,23,1,6,0.5,1,"3f5MYPfx",0.675936900006491,1,"rewarded","unrewarded","unrewarded",TRUE,0,0.2,1,FALSE
"248","control","start_with_long_delay"," test",2,1,25,4,1,1,4,0.65,0.35," right",2,0.35,0.45,0.55,0.65,"unrewarded",13,23,1,6,0.5,1,"3f5MYPfx",1.17308579999371,0,"rewarded","rewarded","unrewarded",FALSE,1,0.3,1,FALSE
"249","control","start_with_long_delay"," test",3,7,1,1,3,1,3,0.35,0.55," left",1,0.35,0.45,0.55,0.65,"rewarded",1,24,1,6,0.5,1,"3f5MYPfx",0.739756199996918,0,"unrewarded","rewarded","rewarded",FALSE,0,0.2,0,FALSE
"250","control","start_with_long_delay"," test",3,7,2,1,3,3,1,0.35,0.55," right",2,0.35,0.45,0.55,0.65,"rewarded",2,25,1,6,0.5,1,"3f5MYPfx",0.364271999991615,1,"rewarded","unrewarded","rewarded",TRUE,0,0.2,0,FALSE
"251","control","start_with_long_delay"," test",3,7,3,2,1,2,1,0.45,0.35," left",1,0.35,0.45,0.55,0.65,"unrewarded",2,25,1,6,0.5,1,"3f5MYPfx",0.617461899993941,0,"rewarded","rewarded","unrewarded",TRUE,0,0.1,1,FALSE
"252","control","start_with_long_delay"," test",3,7,4,1,2,1,2,0.35,0.45," left",1,0.35,0.45,0.55,0.65,"unrewarded",2,25,1,6,0.5,1,"3f5MYPfx",0.520954599996912,0,"unrewarded","rewarded","rewarded",TRUE,1,0.1,0,FALSE
"253","control","start_with_long_delay"," test",3,7,5,2,4,4,2,0.45,0.65," right",2,0.35,0.45,0.55,0.65,"rewarded",3,26,1,6,0.5,1,"3f5MYPfx",0.650396299999557,0,"unrewarded","unrewarded","rewarded",FALSE,0,0.2,0,FALSE
"254","control","start_with_long_delay"," test",3,7,6,4,3,4,3,0.65,0.55," left",1,0.35,0.45,0.55,0.65,"rewarded",4,27,1,6,0.5,1,"3f5MYPfx",0.667709600005765,0,"rewarded","unrewarded","unrewarded",FALSE,0,0.1,1,FALSE
"255","control","start_with_long_delay"," test",3,7,7,1,3,3,1,0.35,0.55," right",2,0.35,0.45,0.55,0.65,"unrewarded",4,27,1,6,0.5,1,"3f5MYPfx",0.401644700003089,0,"rewarded","rewarded","unrewarded",FALSE,0,0.2,0,FALSE
"256","control","start_with_long_delay"," test",3,7,8,3,4,3,4,0.55,0.65," left",1,0.35,0.45,0.55,0.65,"unrewarded",4,27,1,6,0.5,1,"3f5MYPfx",0.710497299995041,0,"unrewarded","rewarded","rewarded",FALSE,0,0.1,0,FALSE
"257","control","start_with_long_delay"," test",3,7,9,1,2,1,2,0.35,0.45," left",1,0.35,0.45,0.55,0.65,"unrewarded",4,27,1,6,0.5,1,"3f5MYPfx",0.542823700001463,0,"unrewarded","unrewarded","rewarded",FALSE,1,0.1,0,FALSE
"258","control","start_with_long_delay"," test",3,7,10,3,1,1,3,0.55,0.35," right",2,0.35,0.45,0.55,0.65,"unrewarded",4,27,1,6,0.5,1,"3f5MYPfx",0.688177800009726,0,"unrewarded","unrewarded","unrewarded",TRUE,0,0.2,1,FALSE
"259","control","start_with_long_delay"," test",3,7,11,1,3,1,3,0.35,0.55," left",1,0.35,0.45,0.55,0.65,"unrewarded",4,27,1,6,0.5,1,"3f5MYPfx",0.472184900005232,0,"unrewarded","unrewarded","unrewarded",TRUE,0,0.2,0,FALSE
"260","control","start_with_long_delay"," test",3,7,12,4,3,3,4,0.65,0.55," right",2,0.35,0.45,0.55,0.65,"rewarded",5,28,1,6,0.5,1,"3f5MYPfx",1.11517699999968,0,"unrewarded","unrewarded","unrewarded",FALSE,0,0.1,1,FALSE
"261","control","start_with_long_delay"," test",3,7,13,4,1,1,4,0.65,0.35," right",2,0.35,0.45,0.55,0.65,"unrewarded",5,28,1,6,0.5,1,"3f5MYPfx",0.358941300000879,1,"rewarded","unrewarded","unrewarded",TRUE,1,0.3,1,FALSE
"262","control","start_with_long_delay"," test",3,7,14,4,3,3,4,0.65,0.55," right",2,0.35,0.45,0.55,0.65,"rewarded",6,29,1,6,0.5,1,"3f5MYPfx",0.880733199999668,1,"unrewarded","rewarded","unrewarded",TRUE,1,0.1,1,FALSE
"263","control","start_with_long_delay"," test",3,7,15,1,4,1,4,0.35,0.65," left",1,0.35,0.45,0.55,0.65,"rewarded",7,30,1,6,0.5,1,"3f5MYPfx",0.520392899998114,0,"rewarded","unrewarded","rewarded",TRUE,0,0.3,0,FALSE
"264","control","start_with_long_delay"," test",3,7,16,3,4,4,3,0.55,0.65," right",2,0.35,0.45,0.55,0.65,"unrewarded",7,30,1,6,0.5,1,"3f5MYPfx",0.913016400008928,0,"rewarded","rewarded","unrewarded",FALSE,0,0.1,0,FALSE
"265","control","start_with_long_delay"," test",3,7,17,4,2,4,2,0.65,0.45," left",1,0.35,0.45,0.55,0.65,"unrewarded",7,30,1,6,0.5,1,"3f5MYPfx",0.546062800000072,0,"unrewarded","rewarded","rewarded",FALSE,0,0.2,1,FALSE
"266","control","start_with_long_delay"," test",3,7,18,3,2,2,3,0.55,0.45," right",2,0.35,0.45,0.55,0.65,"unrewarded",7,30,1,6,0.5,1,"3f5MYPfx",0.429324199998518,0,"unrewarded","unrewarded","rewarded",FALSE,0,0.1,1,FALSE
"267","control","start_with_long_delay"," test",3,7,19,1,4,4,1,0.35,0.65," right",2,0.35,0.45,0.55,0.65,"unrewarded",7,30,1,6,0.5,1,"3f5MYPfx",0.546951800002716,0,"unrewarded","unrewarded","unrewarded",FALSE,1,0.3,0,FALSE
"268","control","start_with_long_delay"," test",3,7,20,1,3,1,3,0.35,0.55," left",1,0.35,0.45,0.55,0.65,"rewarded",8,31,1,6,0.5,1,"3f5MYPfx",1.25950970000122,1,"unrewarded","unrewarded","unrewarded",TRUE,0,0.2,0,FALSE
"269","control","start_with_long_delay"," test",3,7,21,4,1,4,1,0.65,0.35," left",1,0.35,0.45,0.55,0.65,"unrewarded",8,31,1,6,0.5,1,"3f5MYPfx",0.865085800003726,0,"rewarded","unrewarded","unrewarded",TRUE,1,0.3,1,FALSE
"270","control","start_with_long_delay"," test",3,7,22,1,4,4,1,0.35,0.65," right",2,0.35,0.45,0.55,0.65,"unrewarded",8,31,1,6,0.5,1,"3f5MYPfx",0.529099799998221,0,"unrewarded","rewarded","unrewarded",TRUE,0,0.3,0,FALSE
"271","control","start_with_long_delay"," test",3,7,23,4,2,2,4,0.65,0.45," right",2,0.35,0.45,0.55,0.65,"unrewarded",8,31,1,6,0.5,1,"3f5MYPfx",0.605051599995932,0,"unrewarded","unrewarded","rewarded",FALSE,1,0.2,1,FALSE
"272","control","start_with_long_delay"," test",3,7,24,1,3,1,3,0.35,0.55," left",1,0.35,0.45,0.55,0.65,"rewarded",9,32,1,6,0.5,1,"3f5MYPfx",0.476515999995172,0,"unrewarded","unrewarded","unrewarded",FALSE,0,0.2,0,FALSE
"273","control","start_with_long_delay"," test",3,7,25,2,3,2,3,0.45,0.55," left",1,0.35,0.45,0.55,0.65,"unrewarded",9,32,1,6,0.5,1,"3f5MYPfx",1.75441519999004,0,"rewarded","unrewarded","unrewarded",FALSE,1,0.1,0,FALSE
"274","control","start_with_long_delay"," test",4,1,1,4,3,3,4,0.65,0.55," right",2,0.35,0.45,0.55,0.65,"unrewarded",0,32,1,6,0.5,1,"3f5MYPfx",1.08343039998726,0,"unrewarded","rewarded","unrewarded",FALSE,0,0.1,1,FALSE
"275","control","start_with_long_delay"," test",4,1,2,4,3,3,4,0.65,0.55," right",2,0.35,0.45,0.55,0.65,"rewarded",1,33,1,6,0.5,1,"3f5MYPfx",0.721115799999097,1,"unrewarded","unrewarded","rewarded",TRUE,1,0.1,1,FALSE
"276","control","start_with_long_delay"," test",4,1,3,4,3,3,4,0.65,0.55," right",2,0.35,0.45,0.55,0.65,"rewarded",2,34,1,6,0.5,1,"3f5MYPfx",1.16897349999635,1,"rewarded","unrewarded","unrewarded",TRUE,1,0.1,1,FALSE
"277","control","start_with_long_delay"," test",4,1,4,3,1,3,1,0.55,0.35," left",1,0.35,0.45,0.55,0.65,"rewarded",3,35,1,6,0.5,1,"3f5MYPfx",0.397252099995967,0,"rewarded","rewarded","unrewarded",FALSE,0,0.2,1,FALSE
"278","control","start_with_long_delay"," test",4,1,5,3,2,3,2,0.55,0.45," left",1,0.35,0.45,0.55,0.65,"rewarded",4,36,1,6,0.5,1,"3f5MYPfx",0.382969199999934,1,"rewarded","rewarded","rewarded",TRUE,1,0.1,1,FALSE
"279","control","start_with_long_delay"," test",4,1,6,4,1,1,4,0.65,0.35," right",2,0.35,0.45,0.55,0.65,"rewarded",5,37,1,6,0.5,1,"3f5MYPfx",0.632150300007197,0,"rewarded","rewarded","rewarded",FALSE,0,0.3,1,FALSE
"280","control","start_with_long_delay"," test",4,1,7,2,1,2,1,0.45,0.35," left",1,0.35,0.45,0.55,0.65,"unrewarded",5,37,1,6,0.5,1,"3f5MYPfx",0.806784399988828,0,"rewarded","rewarded","rewarded",FALSE,0,0.1,1,FALSE
"281","control","start_with_long_delay"," test",4,1,8,1,4,1,4,0.35,0.65," left",1,0.35,0.45,0.55,0.65,"unrewarded",5,37,1,6,0.5,1,"3f5MYPfx",0.994869799993467,0,"unrewarded","rewarded","rewarded",FALSE,1,0.3,0,FALSE
"282","control","start_with_long_delay"," test",4,1,9,3,2,2,3,0.55,0.45," right",2,0.35,0.45,0.55,0.65,"rewarded",6,38,1,6,0.5,1,"3f5MYPfx",0.516458500002045,0,"unrewarded","unrewarded","rewarded",FALSE,0,0.1,1,FALSE
"283","control","start_with_long_delay"," test",4,1,10,4,3,4,3,0.65,0.55," left",1,0.35,0.45,0.55,0.65,"rewarded",7,39,1,6,0.5,1,"3f5MYPfx",0.311585999996169,0,"rewarded","unrewarded","unrewarded",TRUE,0,0.1,1,FALSE
"284","control","start_with_long_delay"," test",4,1,11,4,3,4,3,0.65,0.55," left",1,0.35,0.45,0.55,0.65,"rewarded",8,40,1,6,0.5,1,"3f5MYPfx",0.335718699992867,1,"rewarded","rewarded","unrewarded",TRUE,1,0.1,1,FALSE
"285","control","start_with_long_delay"," test",4,1,12,4,1,1,4,0.65,0.35," right",2,0.35,0.45,0.55,0.65,"unrewarded",8,40,1,6,0.5,1,"3f5MYPfx",0.391412099997979,1,"rewarded","rewarded","rewarded",TRUE,0,0.3,1,FALSE
"286","control","start_with_long_delay"," test",4,1,13,3,2,3,2,0.55,0.45," left",1,0.35,0.45,0.55,0.65,"rewarded",9,41,1,6,0.5,1,"3f5MYPfx",0.507852000009734,0,"unrewarded","rewarded","rewarded",FALSE,0,0.1,1,FALSE
"287","control","start_with_long_delay"," test",4,1,14,3,2,3,2,0.55,0.45," left",1,0.35,0.45,0.55,0.65,"unrewarded",9,41,1,6,0.5,1,"3f5MYPfx",0.377390599998762,1,"rewarded","unrewarded","rewarded",TRUE,1,0.1,1,FALSE
"288","control","start_with_long_delay"," test",4,1,15,3,4,4,3,0.55,0.65," right",2,0.35,0.45,0.55,0.65,"rewarded",10,42,1,6,0.5,1,"3f5MYPfx",0.446594199995161,1,"unrewarded","rewarded","unrewarded",TRUE,0,0.1,0,FALSE
"289","control","start_with_long_delay"," test",4,1,16,4,1,1,4,0.65,0.35," right",2,0.35,0.45,0.55,0.65,"unrewarded",10,42,1,6,0.5,1,"3f5MYPfx",0.436229200000525,0,"rewarded","unrewarded","rewarded",FALSE,1,0.3,1,FALSE
"290","control","start_with_long_delay"," test",4,1,17,2,1,2,1,0.45,0.35," left",1,0.35,0.45,0.55,0.65,"rewarded",11,43,1,6,0.5,1,"3f5MYPfx",0.576084799991804,0,"unrewarded","rewarded","unrewarded",FALSE,0,0.1,1,FALSE
"291","control","start_with_long_delay"," test",4,1,18,2,1,2,1,0.45,0.35," left",1,0.35,0.45,0.55,0.65,"unrewarded",11,43,1,6,0.5,1,"3f5MYPfx",0.726030899997568,1,"rewarded","unrewarded","rewarded",TRUE,1,0.1,1,FALSE
"292","control","start_with_long_delay"," test",4,1,19,4,2,4,2,0.65,0.45," left",1,0.35,0.45,0.55,0.65,"unrewarded",11,43,1,6,0.5,1,"3f5MYPfx",0.58449200000905,0,"unrewarded","rewarded","unrewarded",TRUE,1,0.2,1,FALSE
"293","control","start_with_long_delay"," test",4,1,20,4,2,2,4,0.65,0.45," right",2,0.35,0.45,0.55,0.65,"rewarded",12,44,1,6,0.5,1,"3f5MYPfx",0.382185400012531,1,"unrewarded","unrewarded","rewarded",TRUE,0,0.2,1,FALSE
"294","control","start_with_long_delay"," test",4,1,21,3,2,2,3,0.55,0.45," right",2,0.35,0.45,0.55,0.65,"rewarded",13,45,1,6,0.5,1,"3f5MYPfx",0.475753399994574,0,"rewarded","unrewarded","unrewarded",FALSE,1,0.1,1,FALSE
"295","control","start_with_long_delay"," test",4,1,22,3,1,3,1,0.55,0.35," left",1,0.35,0.45,0.55,0.65,"unrewarded",13,45,1,6,0.5,1,"3f5MYPfx",0.40043439999863,1,"rewarded","rewarded","unrewarded",TRUE,0,0.2,1,FALSE
"296","control","start_with_long_delay"," test",4,1,23,4,2,2,4,0.65,0.45," right",2,0.35,0.45,0.55,0.65,"unrewarded",13,45,1,6,0.5,1,"3f5MYPfx",0.352524999994785,0,"unrewarded","rewarded","rewarded",FALSE,0,0.2,1,FALSE
"297","control","start_with_long_delay"," test",4,1,24,3,4,4,3,0.55,0.65," right",2,0.35,0.45,0.55,0.65,"unrewarded",13,45,1,6,0.5,1,"3f5MYPfx",0.375541300003533,0,"unrewarded","unrewarded","rewarded",TRUE,1,0.1,0,FALSE
"298","control","start_with_long_delay"," test",4,1,25,3,2,2,3,0.55,0.45," right",2,0.35,0.45,0.55,0.65,"rewarded",14,46,1,6,0.5,1,"3f5MYPfx",0.399863800004823,1,"unrewarded","unrewarded","unrewarded",TRUE,1,0.1,1,FALSE
"299","control","start_with_long_delay"," test",5,7,1,3,1,1,3,0.55,0.35," right",2,0.35,0.45,0.55,0.65,"rewarded",1,47,1,6,0.5,1,"3f5MYPfx",0.322283300003619,1,"rewarded","unrewarded","unrewarded",TRUE,1,0.2,1,FALSE
"300","control","start_with_long_delay"," test",5,7,2,1,2,2,1,0.35,0.45," right",2,0.35,0.45,0.55,0.65,"unrewarded",1,47,1,6,0.5,1,"3f5MYPfx",0.622247499995865,0,"rewarded","rewarded","unrewarded",FALSE,1,0.1,0,FALSE
"301","control","start_with_long_delay"," test",5,7,3,3,1,1,3,0.55,0.35," right",2,0.35,0.45,0.55,0.65,"rewarded",2,48,1,6,0.5,1,"3f5MYPfx",0.591404400009196,0,"unrewarded","rewarded","rewarded",TRUE,1,0.2,1,FALSE
"302","control","start_with_long_delay"," test",5,7,4,1,2,1,2,0.35,0.45," left",1,0.35,0.45,0.55,0.65,"unrewarded",2,48,1,6,0.5,1,"3f5MYPfx",0.789494099997682,0,"rewarded","unrewarded","rewarded",FALSE,0,0.1,0,FALSE
"303","control","start_with_long_delay"," test",5,7,5,3,2,3,2,0.55,0.45," left",1,0.35,0.45,0.55,0.65,"rewarded",3,49,1,6,0.5,1,"3f5MYPfx",0.491054700003588,0,"unrewarded","rewarded","unrewarded",FALSE,1,0.1,1,FALSE
"304","control","start_with_long_delay"," test",5,7,6,3,2,2,3,0.55,0.45," right",2,0.35,0.45,0.55,0.65,"rewarded",4,50,1,6,0.5,1,"3f5MYPfx",0.815471699999762,1,"rewarded","unrewarded","rewarded",TRUE,0,0.1,1,FALSE
"305","control","start_with_long_delay"," test",5,7,7,2,3,2,3,0.45,0.55," left",1,0.35,0.45,0.55,0.65,"unrewarded",4,50,1,6,0.5,1,"3f5MYPfx",0.647465899994131,0,"rewarded","rewarded","unrewarded",TRUE,0,0.1,0,FALSE
"306","control","start_with_long_delay"," test",5,7,8,3,1,1,3,0.55,0.35," right",2,0.35,0.45,0.55,0.65,"rewarded",5,51,1,6,0.5,1,"3f5MYPfx",0.574456699992879,0,"unrewarded","rewarded","rewarded",FALSE,0,0.2,1,FALSE
"307","control","start_with_long_delay"," test",5,7,9,3,2,2,3,0.55,0.45," right",2,0.35,0.45,0.55,0.65,"unrewarded",5,51,1,6,0.5,1,"3f5MYPfx",0.711561700009042,1,"rewarded","unrewarded","rewarded",TRUE,1,0.1,1,FALSE
"308","control","start_with_long_delay"," test",5,7,10,4,2,2,4,0.65,0.45," right",2,0.35,0.45,0.55,0.65,"rewarded",6,52,1,6,0.5,1,"3f5MYPfx",1.05874520000361,0,"unrewarded","rewarded","unrewarded",FALSE,1,0.2,1,FALSE
"309","control","start_with_long_delay"," test",5,7,11,4,2,2,4,0.65,0.45," right",2,0.35,0.45,0.55,0.65,"rewarded",7,53,1,6,0.5,1,"3f5MYPfx",0.460846699992544,1,"rewarded","unrewarded","rewarded",TRUE,1,0.2,1,FALSE
"310","control","start_with_long_delay"," test",5,7,12,4,1,4,1,0.65,0.35," left",1,0.35,0.45,0.55,0.65,"rewarded",8,54,1,6,0.5,1,"3f5MYPfx",0.408580400006031,1,"rewarded","rewarded","unrewarded",TRUE,0,0.3,1,FALSE
"311","control","start_with_long_delay"," test",5,7,13,4,2,2,4,0.65,0.45," right",2,0.35,0.45,0.55,0.65,"rewarded",9,55,1,6,0.5,1,"3f5MYPfx",0.347071500000311,1,"rewarded","rewarded","rewarded",TRUE,0,0.2,1,FALSE
"312","control","start_with_long_delay"," test",5,7,14,3,4,3,4,0.55,0.65," left",1,0.35,0.45,0.55,0.65,"rewarded",10,56,1,6,0.5,1,"3f5MYPfx",0.405236000005971,0,"rewarded","rewarded","rewarded",TRUE,0,0.1,0,FALSE
"313","control","start_with_long_delay"," test",5,7,15,3,2,2,3,0.55,0.45," right",2,0.35,0.45,0.55,0.65,"unrewarded",10,56,1,6,0.5,1,"3f5MYPfx",0.455345499998657,1,"rewarded","rewarded","rewarded",TRUE,0,0.1,1,FALSE
"314","control","start_with_long_delay"," test",5,7,16,4,1,1,4,0.65,0.35," right",2,0.35,0.45,0.55,0.65,"unrewarded",10,56,1,6,0.5,1,"3f5MYPfx",0.344620499992743,0,"unrewarded","rewarded","rewarded",FALSE,1,0.3,1,FALSE
"315","control","start_with_long_delay"," test",5,7,17,3,4,4,3,0.55,0.65," right",2,0.35,0.45,0.55,0.65,"rewarded",11,57,1,6,0.5,1,"3f5MYPfx",0.447348899993813,0,"unrewarded","unrewarded","rewarded",TRUE,1,0.1,0,FALSE
"316","control","start_with_long_delay"," test",5,7,18,4,2,4,2,0.65,0.45," left",1,0.35,0.45,0.55,0.65,"rewarded",12,58,1,6,0.5,1,"3f5MYPfx",0.458672900000238,0,"rewarded","unrewarded","unrewarded",FALSE,0,0.2,1,FALSE
"317","control","start_with_long_delay"," test",5,7,19,4,2,4,2,0.65,0.45," left",1,0.35,0.45,0.55,0.65,"rewarded",13,59,1,6,0.5,1,"3f5MYPfx",0.364433800001279,1,"rewarded","rewarded","unrewarded",TRUE,1,0.2,1,FALSE
"318","control","start_with_long_delay"," test",5,7,20,4,3,4,3,0.65,0.55," left",1,0.35,0.45,0.55,0.65,"unrewarded",13,59,1,6,0.5,1,"3f5MYPfx",0.310126299998956,1,"rewarded","rewarded","rewarded",TRUE,1,0.1,1,FALSE
"319","control","start_with_long_delay"," test",5,7,21,3,4,3,4,0.55,0.65," left",1,0.35,0.45,0.55,0.65,"unrewarded",13,59,1,6,0.5,1,"3f5MYPfx",0.34276790000149,0,"unrewarded","rewarded","rewarded",TRUE,1,0.1,0,FALSE
"320","control","start_with_long_delay"," test",5,7,22,4,1,4,1,0.65,0.35," left",1,0.35,0.45,0.55,0.65,"rewarded",14,60,1,6,0.5,1,"3f5MYPfx",0.350151799997548,0,"unrewarded","unrewarded","rewarded",FALSE,1,0.3,1,FALSE
"321","control","start_with_long_delay"," test",5,7,23,1,2,2,1,0.35,0.45," right",2,0.35,0.45,0.55,0.65,"unrewarded",14,60,1,6,0.5,1,"3f5MYPfx",0.579653599997982,0,"rewarded","unrewarded","unrewarded",FALSE,0,0.1,0,FALSE
"322","control","start_with_long_delay"," test",5,7,24,4,2,4,2,0.65,0.45," left",1,0.35,0.45,0.55,0.65,"rewarded",15,61,1,6,0.5,1,"3f5MYPfx",0.598198300009244,0,"unrewarded","rewarded","unrewarded",FALSE,0,0.2,1,FALSE
"323","control","start_with_long_delay"," test",5,7,25,4,3,3,4,0.65,0.55," right",2,0.35,0.45,0.55,0.65,"unrewarded",15,61,1,6,0.5,1,"3f5MYPfx",0.562111200008076,1,"rewarded","unrewarded","rewarded",TRUE,0,0.1,1,FALSE
"324","control","start_with_long_delay"," test",6,1,1,1,4,1,4,0.35,0.65," left",1,0.35,0.45,0.55,0.65,"unrewarded",0,61,1,6,0.5,1,"3f5MYPfx",1.32378069999686,0,"unrewarded","rewarded","unrewarded",TRUE,0,0.3,0,FALSE
"325","control","start_with_long_delay"," test",6,1,2,1,4,4,1,0.35,0.65," right",2,0.35,0.45,0.55,0.65,"rewarded",1,62,1,6,0.5,1,"3f5MYPfx",0.334780500008492,1,"unrewarded","unrewarded","rewarded",TRUE,0,0.3,0,FALSE
"326","control","start_with_long_delay"," test",6,1,3,1,2,1,2,0.35,0.45," left",1,0.35,0.45,0.55,0.65,"rewarded",2,63,1,6,0.5,1,"3f5MYPfx",0.310279199999059,1,"rewarded","unrewarded","unrewarded",TRUE,0,0.1,0,FALSE
"327","control","start_with_long_delay"," test",6,1,4,4,3,4,3,0.65,0.55," left",1,0.35,0.45,0.55,0.65,"unrewarded",2,63,1,6,0.5,1,"3f5MYPfx",0.535107299991068,0,"rewarded","rewarded","unrewarded",FALSE,1,0.1,1,FALSE
"328","control","start_with_long_delay"," test",6,1,5,4,2,2,4,0.65,0.45," right",2,0.35,0.45,0.55,0.65,"rewarded",3,64,1,6,0.5,1,"3f5MYPfx",0.269503599993186,1,"unrewarded","rewarded","rewarded",TRUE,0,0.2,1,FALSE
"329","control","start_with_long_delay"," test",6,1,6,1,3,3,1,0.35,0.55," right",2,0.35,0.45,0.55,0.65,"unrewarded",3,64,1,6,0.5,1,"3f5MYPfx",0.500391499997932,0,"rewarded","unrewarded","rewarded",FALSE,1,0.2,0,FALSE
"330","control","start_with_long_delay"," test",6,1,7,1,3,1,3,0.35,0.55," left",1,0.35,0.45,0.55,0.65,"unrewarded",3,64,1,6,0.5,1,"3f5MYPfx",0.35785770000075,1,"unrewarded","rewarded","unrewarded",TRUE,0,0.2,0,FALSE
"331","control","start_with_long_delay"," test",6,1,8,1,4,1,4,0.35,0.65," left",1,0.35,0.45,0.55,0.65,"unrewarded",3,64,1,6,0.5,1,"3f5MYPfx",0.307051499999943,1,"unrewarded","unrewarded","rewarded",TRUE,1,0.3,0,FALSE
"332","control","start_with_long_delay"," test",6,1,9,4,1,1,4,0.65,0.35," right",2,0.35,0.45,0.55,0.65,"unrewarded",3,64,1,6,0.5,1,"3f5MYPfx",0.311941599997226,0,"unrewarded","unrewarded","unrewarded",TRUE,0,0.3,1,FALSE
"333","control","start_with_long_delay"," test",6,1,10,4,3,4,3,0.65,0.55," left",1,0.35,0.45,0.55,0.65,"rewarded",4,65,1,6,0.5,1,"3f5MYPfx",0.335748999990756,1,"unrewarded","unrewarded","unrewarded",TRUE,0,0.1,1,FALSE
"334","control","start_with_long_delay"," test",6,1,11,4,1,1,4,0.65,0.35," right",2,0.35,0.45,0.55,0.65,"rewarded",5,66,1,6,0.5,1,"3f5MYPfx",0.334893499995815,1,"rewarded","unrewarded","unrewarded",TRUE,0,0.3,1,FALSE
"335","control","start_with_long_delay"," test",6,1,12,4,1,1,4,0.65,0.35," right",2,0.35,0.45,0.55,0.65,"rewarded",6,67,1,6,0.5,1,"3f5MYPfx",0.373123500001384,1,"rewarded","rewarded","unrewarded",TRUE,1,0.3,1,FALSE
"336","control","start_with_long_delay"," test",6,1,13,3,1,3,1,0.55,0.35," left",1,0.35,0.45,0.55,0.65,"rewarded",7,68,1,6,0.5,1,"3f5MYPfx",0.651697499997681,0,"rewarded","rewarded","rewarded",FALSE,0,0.2,1,FALSE
"337","control","start_with_long_delay"," test",6,1,14,4,1,1,4,0.65,0.35," right",2,0.35,0.45,0.55,0.65,"rewarded",8,69,1,6,0.5,1,"3f5MYPfx",0.437756699990132,0,"rewarded","rewarded","rewarded",FALSE,0,0.3,1,FALSE
"338","control","start_with_long_delay"," test",6,1,15,3,4,3,4,0.55,0.65," left",1,0.35,0.45,0.55,0.65,"unrewarded",8,69,1,6,0.5,1,"3f5MYPfx",1.05988369999977,0,"rewarded","rewarded","rewarded",TRUE,0,0.1,0,FALSE
"339","control","start_with_long_delay"," test",6,1,16,2,1,2,1,0.45,0.35," left",1,0.35,0.45,0.55,0.65,"unrewarded",8,69,1,6,0.5,1,"3f5MYPfx",0.603050299992901,0,"unrewarded","rewarded","rewarded",FALSE,1,0.1,1,FALSE
"340","control","start_with_long_delay"," test",6,1,17,4,1,1,4,0.65,0.35," right",2,0.35,0.45,0.55,0.65,"rewarded",9,70,1,6,0.5,1,"3f5MYPfx",0.405213899997761,0,"unrewarded","unrewarded","rewarded",FALSE,0,0.3,1,FALSE
"341","control","start_with_long_delay"," test",6,1,18,4,2,2,4,0.65,0.45," right",2,0.35,0.45,0.55,0.65,"unrewarded",9,70,1,6,0.5,1,"3f5MYPfx",0.317520500000683,1,"rewarded","unrewarded","unrewarded",TRUE,1,0.2,1,FALSE
"342","control","start_with_long_delay"," test",6,1,19,2,3,2,3,0.45,0.55," left",1,0.35,0.45,0.55,0.65,"rewarded",10,71,1,6,0.5,1,"3f5MYPfx",0.403508500006865,0,"unrewarded","rewarded","unrewarded",FALSE,0,0.1,0,FALSE
"343","control","start_with_long_delay"," test",6,1,20,2,4,4,2,0.45,0.65," right",2,0.35,0.45,0.55,0.65,"unrewarded",10,71,1,6,0.5,1,"3f5MYPfx",0.313184500002535,1,"rewarded","unrewarded","rewarded",TRUE,0,0.2,0,FALSE
"344","control","start_with_long_delay"," test",6,1,21,2,3,3,2,0.45,0.55," right",2,0.35,0.45,0.55,0.65,"unrewarded",10,71,1,6,0.5,1,"3f5MYPfx",0.251479699989432,1,"unrewarded","rewarded","unrewarded",TRUE,1,0.1,0,FALSE
"345","control","start_with_long_delay"," test",6,1,22,2,4,2,4,0.45,0.65," left",1,0.35,0.45,0.55,0.65,"rewarded",11,72,1,6,0.5,1,"3f5MYPfx",0.504800599999726,1,"unrewarded","unrewarded","rewarded",TRUE,0,0.2,0,FALSE
"346","control","start_with_long_delay"," test",6,1,23,4,2,2,4,0.65,0.45," right",2,0.35,0.45,0.55,0.65,"unrewarded",11,72,1,6,0.5,1,"3f5MYPfx",0.806424899987178,0,"rewarded","unrewarded","unrewarded",TRUE,0,0.2,1,FALSE
"347","control","start_with_long_delay"," test",6,1,24,3,1,3,1,0.55,0.35," left",1,0.35,0.45,0.55,0.65,"unrewarded",11,72,1,6,0.5,1,"3f5MYPfx",1.00793180000619,0,"unrewarded","rewarded","unrewarded",FALSE,0,0.2,1,FALSE
"348","control","start_with_long_delay"," test",6,1,25,2,1,2,1,0.45,0.35," left",1,0.35,0.45,0.55,0.65,"unrewarded",11,72,1,6,0.5,1,"3f5MYPfx",0.402587600008701,0,"unrewarded","unrewarded","rewarded",FALSE,1,0.1,1,FALSE
"349","control","start_with_long_delay"," test",7,7,1,3,2,3,2,0.55,0.45," left",1,0.35,0.45,0.55,0.65,"rewarded",1,73,1,6,0.5,1,"3f5MYPfx",0.913136300005135,0,"unrewarded","unrewarded","unrewarded",TRUE,1,0.1,1,FALSE
"350","control","start_with_long_delay"," test",7,7,2,3,1,3,1,0.55,0.35," left",1,0.35,0.45,0.55,0.65,"rewarded",2,74,1,6,0.5,1,"3f5MYPfx",0.289424099988537,1,"rewarded","unrewarded","unrewarded",TRUE,1,0.2,1,FALSE
"351","control","start_with_long_delay"," test",7,7,3,4,1,1,4,0.65,0.35," right",2,0.35,0.45,0.55,0.65,"unrewarded",2,74,1,6,0.5,1,"3f5MYPfx",0.6582505999977,0,"rewarded","rewarded","unrewarded",FALSE,0,0.3,1,FALSE
"352","control","start_with_long_delay"," test",7,7,4,4,2,2,4,0.65,0.45," right",2,0.35,0.45,0.55,0.65,"rewarded",3,75,1,6,0.5,1,"3f5MYPfx",0.308884999991278,1,"unrewarded","rewarded","rewarded",TRUE,1,0.2,1,FALSE
"353","control","start_with_long_delay"," test",7,7,5,3,1,1,3,0.55,0.35," right",2,0.35,0.45,0.55,0.65,"rewarded",4,76,1,6,0.5,1,"3f5MYPfx",1.29265960000339,0,"rewarded","unrewarded","rewarded",FALSE,1,0.2,1,FALSE
"354","control","start_with_long_delay"," test",7,7,6,3,4,3,4,0.55,0.65," left",1,0.35,0.45,0.55,0.65,"rewarded",5,77,1,6,0.5,1,"3f5MYPfx",1.12047919999168,1,"rewarded","rewarded","unrewarded",TRUE,0,0.1,0,FALSE
"355","control","start_with_long_delay"," test",7,7,7,3,4,3,4,0.55,0.65," left",1,0.35,0.45,0.55,0.65,"unrewarded",5,77,1,6,0.5,1,"3f5MYPfx",1.22507349999796,1,"rewarded","rewarded","rewarded",TRUE,1,0.1,0,FALSE
"356","control","start_with_long_delay"," test",7,7,8,4,2,2,4,0.65,0.45," right",2,0.35,0.45,0.55,0.65,"rewarded",6,78,1,6,0.5,1,"3f5MYPfx",0.664526799999294,0,"unrewarded","rewarded","rewarded",FALSE,0,0.2,1,FALSE
"357","control","start_with_long_delay"," test",7,7,9,3,1,1,3,0.55,0.35," right",2,0.35,0.45,0.55,0.65,"rewarded",7,79,1,6,0.5,1,"3f5MYPfx",1.33479790001002,0,"rewarded","unrewarded","rewarded",FALSE,1,0.2,1,FALSE
"358","control","start_with_long_delay"," test",7,7,10,4,2,4,2,0.65,0.45," left",1,0.35,0.45,0.55,0.65,"rewarded",8,80,1,6,0.5,1,"3f5MYPfx",1.01072790000762,0,"rewarded","rewarded","unrewarded",FALSE,0,0.2,1,FALSE
"359","control","start_with_long_delay"," test",7,7,11,3,1,3,1,0.55,0.35," left",1,0.35,0.45,0.55,0.65,"unrewarded",8,80,1,6,0.5,1,"3f5MYPfx",0.562115699998685,0,"rewarded","rewarded","rewarded",FALSE,1,0.2,1,FALSE
"360","control","start_with_long_delay"," test",7,7,12,3,1,3,1,0.55,0.35," left",1,0.35,0.45,0.55,0.65,"rewarded",9,81,1,6,0.5,1,"3f5MYPfx",0.427849899991998,1,"unrewarded","rewarded","rewarded",TRUE,1,0.2,1,FALSE
"361","control","start_with_long_delay"," test",7,7,13,4,2,2,4,0.65,0.45," right",2,0.35,0.45,0.55,0.65,"rewarded",10,82,1,6,0.5,1,"3f5MYPfx",0.80444959999295,0,"rewarded","unrewarded","rewarded",FALSE,0,0.2,1,FALSE
"362","control","start_with_long_delay"," test",7,7,14,3,2,2,3,0.55,0.45," right",2,0.35,0.45,0.55,0.65,"rewarded",11,83,1,6,0.5,1,"3f5MYPfx",0.63198310000007,0,"rewarded","rewarded","unrewarded",FALSE,1,0.1,1,FALSE
"363","control","start_with_long_delay"," test",7,7,15,4,2,2,4,0.65,0.45," right",2,0.35,0.45,0.55,0.65,"unrewarded",11,83,1,6,0.5,1,"3f5MYPfx",0.602048800006742,0,"rewarded","rewarded","rewarded",FALSE,1,0.2,1,FALSE
"364","control","start_with_long_delay"," test",7,7,16,3,2,3,2,0.55,0.45," left",1,0.35,0.45,0.55,0.65,"rewarded",12,84,1,6,0.5,1,"3f5MYPfx",0.468225200005691,0,"unrewarded","rewarded","rewarded",FALSE,0,0.1,1,FALSE
"365","control","start_with_long_delay"," test",7,7,17,1,2,2,1,0.35,0.45," right",2,0.35,0.45,0.55,0.65,"rewarded",13,85,1,6,0.5,1,"3f5MYPfx",1.06556050000654,0,"rewarded","unrewarded","rewarded",FALSE,0,0.1,0,FALSE
"366","control","start_with_long_delay"," test",7,7,18,4,3,4,3,0.65,0.55," left",1,0.35,0.45,0.55,0.65,"rewarded",14,86,1,6,0.5,1,"3f5MYPfx",0.775988499997766,0,"rewarded","rewarded","unrewarded",FALSE,0,0.1,1,FALSE
"367","control","start_with_long_delay"," test",7,7,19,4,1,1,4,0.65,0.35," right",2,0.35,0.45,0.55,0.65,"unrewarded",14,86,1,6,0.5,1,"3f5MYPfx",1.62441469999612,1,"rewarded","rewarded","rewarded",TRUE,0,0.3,1,FALSE
"368","control","start_with_long_delay"," test",7,7,20,3,2,3,2,0.55,0.45," left",1,0.35,0.45,0.55,0.65,"rewarded",15,87,1,6,0.5,1,"3f5MYPfx",0.528806399990572,0,"unrewarded","rewarded","rewarded",FALSE,0,0.1,1,FALSE
"369","control","start_with_long_delay"," test",7,7,21,3,4,3,4,0.55,0.65," left",1,0.35,0.45,0.55,0.65,"unrewarded",15,87,1,6,0.5,1,"3f5MYPfx",0.531850799990934,1,"rewarded","unrewarded","rewarded",TRUE,1,0.1,0,FALSE
"370","control","start_with_long_delay"," test",7,7,22,3,2,2,3,0.55,0.45," right",2,0.35,0.45,0.55,0.65,"rewarded",16,88,1,6,0.5,1,"3f5MYPfx",0.646000499997172,1,"unrewarded","rewarded","unrewarded",TRUE,0,0.1,1,FALSE
"371","control","start_with_long_delay"," test",7,7,23,1,2,1,2,0.35,0.45," left",1,0.35,0.45,0.55,0.65,"unrewarded",16,88,1,6,0.5,1,"3f5MYPfx",1.01355040000635,0,"rewarded","unrewarded","rewarded",FALSE,0,0.1,0,FALSE
"372","control","start_with_long_delay"," test",7,7,24,3,4,4,3,0.55,0.65," right",2,0.35,0.45,0.55,0.65,"unrewarded",16,88,1,6,0.5,1,"3f5MYPfx",0.833912799993414,0,"unrewarded","rewarded","unrewarded",FALSE,0,0.1,0,FALSE
"373","control","start_with_long_delay"," test",7,7,25,4,1,4,1,0.65,0.35," left",1,0.35,0.45,0.55,0.65,"rewarded",17,89,1,6,0.5,1,"3f5MYPfx",0.779495700000552,0,"unrewarded","unrewarded","rewarded",FALSE,0,0.3,1,FALSE
"374","control","start_with_long_delay"," test",8,1,1,4,2,2,4,0.65,0.45," right",2,0.35,0.45,0.55,0.65,"rewarded",1,90,1,6,0.5,1,"3f5MYPfx",0.430107300009695,1,"rewarded","unrewarded","unrewarded",TRUE,0,0.2,1,FALSE
"375","control","start_with_long_delay"," test",8,1,2,4,2,2,4,0.65,0.45," right",2,0.35,0.45,0.55,0.65,"unrewarded",1,90,1,6,0.5,1,"3f5MYPfx",0.277205000005779,1,"rewarded","rewarded","unrewarded",TRUE,1,0.2,1,FALSE
"376","control","start_with_long_delay"," test",8,1,3,4,2,4,2,0.65,0.45," left",1,0.35,0.45,0.55,0.65,"rewarded",2,91,1,6,0.5,1,"3f5MYPfx",0.305802100003348,1,"unrewarded","rewarded","rewarded",TRUE,0,0.2,1,FALSE
"377","control","start_with_long_delay"," test",8,1,4,4,2,4,2,0.65,0.45," left",1,0.35,0.45,0.55,0.65,"rewarded",3,92,1,6,0.5,1,"3f5MYPfx",0.293001199999708,1,"rewarded","unrewarded","rewarded",TRUE,1,0.2,1,FALSE
"378","control","start_with_long_delay"," test",8,1,5,4,1,4,1,0.65,0.35," left",1,0.35,0.45,0.55,0.65,"unrewarded",3,92,1,6,0.5,1,"3f5MYPfx",0.286076000003959,1,"rewarded","rewarded","unrewarded",TRUE,1,0.3,1,FALSE
"379","control","start_with_long_delay"," test",8,1,6,3,1,1,3,0.55,0.35," right",2,0.35,0.45,0.55,0.65,"rewarded",4,93,1,6,0.5,1,"3f5MYPfx",0.947937300006743,0,"unrewarded","rewarded","rewarded",FALSE,0,0.2,1,FALSE
"380","control","start_with_long_delay"," test",8,1,7,4,2,2,4,0.65,0.45," right",2,0.35,0.45,0.55,0.65,"rewarded",5,94,1,6,0.5,1,"3f5MYPfx",0.314301900012651,0,"rewarded","unrewarded","rewarded",FALSE,1,0.2,1,FALSE
"381","control","start_with_long_delay"," test",8,1,8,4,2,2,4,0.65,0.45," right",2,0.35,0.45,0.55,0.65,"rewarded",6,95,1,6,0.5,1,"3f5MYPfx",0.341591900010826,1,"rewarded","rewarded","unrewarded",TRUE,1,0.2,1,FALSE
"382","control","start_with_long_delay"," test",8,1,9,4,2,4,2,0.65,0.45," left",1,0.35,0.45,0.55,0.65,"rewarded",7,96,1,6,0.5,1,"3f5MYPfx",0.390408399995067,1,"rewarded","rewarded","rewarded",TRUE,0,0.2,1,FALSE
"383","control","start_with_long_delay"," test",8,1,10,4,1,4,1,0.65,0.35," left",1,0.35,0.45,0.55,0.65,"rewarded",8,97,1,6,0.5,1,"3f5MYPfx",0.303247300005751,1,"rewarded","rewarded","rewarded",TRUE,1,0.3,1,FALSE
"384","control","start_with_long_delay"," test",8,1,11,3,2,2,3,0.55,0.45," right",2,0.35,0.45,0.55,0.65,"rewarded",9,98,1,6,0.5,1,"3f5MYPfx",0.973184599992237,0,"rewarded","rewarded","rewarded",FALSE,0,0.1,1,FALSE
"385","control","start_with_long_delay"," test",8,1,12,4,1,4,1,0.65,0.35," left",1,0.35,0.45,0.55,0.65,"rewarded",10,99,1,6,0.5,1,"3f5MYPfx",0.565596000000369,0,"rewarded","rewarded","rewarded",FALSE,0,0.3,1,FALSE
"386","control","start_with_long_delay"," test",8,1,13,4,1,4,1,0.65,0.35," left",1,0.35,0.45,0.55,0.65,"rewarded",11,100,1,6,0.5,1,"3f5MYPfx",0.341950600006385,1,"rewarded","rewarded","rewarded",TRUE,1,0.3,1,FALSE
"387","control","start_with_long_delay"," test",8,1,14,3,4,4,3,0.55,0.65," right",2,0.35,0.45,0.55,0.65,"rewarded",12,101,1,6,0.5,1,"3f5MYPfx",0.770840199998929,0,"rewarded","rewarded","rewarded",TRUE,0,0.1,0,FALSE
"388","control","start_with_long_delay"," test",8,1,15,4,3,4,3,0.65,0.55," left",1,0.35,0.45,0.55,0.65,"rewarded",13,102,1,6,0.5,1,"3f5MYPfx",0.47271620000538,0,"rewarded","rewarded","rewarded",TRUE,0,0.1,1,FALSE
"389","control","start_with_long_delay"," test",8,1,16,1,2,1,2,0.35,0.45," left",1,0.35,0.45,0.55,0.65,"rewarded",14,103,1,6,0.5,1,"3f5MYPfx",1.10157359999721,0,"rewarded","rewarded","rewarded",FALSE,1,0.1,0,FALSE
"390","control","start_with_long_delay"," test",8,1,17,4,1,1,4,0.65,0.35," right",2,0.35,0.45,0.55,0.65,"rewarded",15,104,1,6,0.5,1,"3f5MYPfx",0.499268700004905,0,"rewarded","rewarded","rewarded",TRUE,0,0.3,1,FALSE
"391","control","start_with_long_delay"," test",8,1,18,3,1,3,1,0.55,0.35," left",1,0.35,0.45,0.55,0.65,"unrewarded",15,104,1,6,0.5,1,"3f5MYPfx",0.840504599997075,0,"rewarded","rewarded","rewarded",FALSE,0,0.2,1,FALSE
"392","control","start_with_long_delay"," test",8,1,19,3,4,3,4,0.55,0.65," left",1,0.35,0.45,0.55,0.65,"unrewarded",15,104,1,6,0.5,1,"3f5MYPfx",0.422494900005404,1,"unrewarded","rewarded","rewarded",TRUE,1,0.1,0,FALSE
"393","control","start_with_long_delay"," test",8,1,20,3,2,3,2,0.55,0.45," left",1,0.35,0.45,0.55,0.65,"rewarded",16,105,1,6,0.5,1,"3f5MYPfx",0.384974999993574,1,"unrewarded","unrewarded","rewarded",TRUE,1,0.1,1,FALSE
"394","control","start_with_long_delay"," test",8,1,21,3,1,1,3,0.55,0.35," right",2,0.35,0.45,0.55,0.65,"unrewarded",16,105,1,6,0.5,1,"3f5MYPfx",0.491900799999712,1,"rewarded","unrewarded","unrewarded",TRUE,0,0.2,1,FALSE
"395","control","start_with_long_delay"," test",8,1,22,3,2,2,3,0.55,0.45," right",2,0.35,0.45,0.55,0.65,"unrewarded",16,105,1,6,0.5,1,"3f5MYPfx",0.358225799995125,1,"unrewarded","rewarded","unrewarded",TRUE,1,0.1,1,FALSE
"396","control","start_with_long_delay"," test",8,1,23,1,2,1,2,0.35,0.45," left",1,0.35,0.45,0.55,0.65,"unrewarded",16,105,1,6,0.5,1,"3f5MYPfx",0.51689840000472,0,"unrewarded","unrewarded","rewarded",FALSE,0,0.1,0,FALSE
"397","control","start_with_long_delay"," test",8,1,24,3,2,3,2,0.55,0.45," left",1,0.35,0.45,0.55,0.65,"rewarded",17,106,1,6,0.5,1,"3f5MYPfx",0.414902100004838,0,"unrewarded","unrewarded","unrewarded",FALSE,1,0.1,1,FALSE
"398","control","start_with_long_delay"," test",8,1,25,3,2,3,2,0.55,0.45," left",1,0.35,0.45,0.55,0.65,"unrewarded",17,106,1,6,0.5,1,"3f5MYPfx",0.366297200002009,1,"rewarded","unrewarded","unrewarded",TRUE,1,0.1,1,FALSE
"399","ADHD","start_with_long_delay"," test",1,7,1,2,4,4,2,0.45,0.65," right",2,0.35,0.45,0.55,0.65,"unrewarded",0,4,1,6,0.5,1,"3i8lkN5J",1.01247479999438,0,"unrewarded","rewarded","unrewarded",FALSE,0,0.2,0,FALSE
"400","ADHD","start_with_long_delay"," test",1,7,2,3,4,3,4,0.55,0.65," left",1,0.35,0.45,0.55,0.65,"rewarded",1,5,1,6,0.5,1,"3i8lkN5J",0.971270699985325,0,"unrewarded","unrewarded","rewarded",FALSE,0,0.1,0,FALSE
"401","ADHD","start_with_long_delay"," test",1,7,3,3,2,3,2,0.55,0.45," left",1,0.35,0.45,0.55,0.65,"rewarded",2,6,1,6,0.5,1,"3i8lkN5J",1.01868469989859,1,"rewarded","unrewarded","unrewarded",TRUE,1,0.1,1,FALSE
"402","ADHD","start_with_long_delay"," test",1,7,4,3,2,3,2,0.55,0.45," left",1,0.35,0.45,0.55,0.65,"rewarded",3,7,1,6,0.5,1,"3i8lkN5J",0.565835900139064,1,"rewarded","rewarded","unrewarded",TRUE,1,0.1,1,FALSE
"403","ADHD","start_with_long_delay"," test",1,7,5,3,4,3,4,0.55,0.65," left",1,0.35,0.45,0.55,0.65,"unrewarded",3,7,1,6,0.5,1,"3i8lkN5J",0.608663399936631,1,"rewarded","rewarded","rewarded",TRUE,1,0.1,0,FALSE
"404","ADHD","start_with_long_delay"," test",1,7,6,3,2,2,3,0.55,0.45," right",2,0.35,0.45,0.55,0.65,"unrewarded",3,7,1,6,0.5,1,"3i8lkN5J",0.756834200117737,1,"unrewarded","rewarded","rewarded",TRUE,0,0.1,1,FALSE
"405","ADHD","start_with_long_delay"," test",1,7,7,4,2,4,2,0.65,0.45," left",1,0.35,0.45,0.55,0.65,"rewarded",4,8,1,6,0.5,1,"3i8lkN5J",1.80795889999717,0,"unrewarded","unrewarded","rewarded",FALSE,0,0.2,1,FALSE
"406","ADHD","start_with_long_delay"," test",1,7,8,3,2,2,3,0.55,0.45," right",2,0.35,0.45,0.55,0.65,"unrewarded",4,8,1,6,0.5,1,"3i8lkN5J",1.2795732000377,0,"rewarded","unrewarded","unrewarded",FALSE,0,0.1,1,FALSE
"407","ADHD","start_with_long_delay"," test",1,7,9,3,2,3,2,0.55,0.45," left",1,0.35,0.45,0.55,0.65,"unrewarded",4,8,1,6,0.5,1,"3i8lkN5J",0.382240900071338,1,"unrewarded","rewarded","unrewarded",TRUE,0,0.1,1,FALSE
"408","ADHD","start_with_long_delay"," test",1,7,10,4,1,4,1,0.65,0.35," left",1,0.35,0.45,0.55,0.65,"rewarded",5,9,1,6,0.5,1,"3i8lkN5J",1.69161679991521,0,"unrewarded","unrewarded","rewarded",FALSE,1,0.3,1,FALSE
"409","ADHD","start_with_long_delay"," test",1,7,11,1,2,1,2,0.35,0.45," left",1,0.35,0.45,0.55,0.65,"rewarded",6,10,1,6,0.5,1,"3i8lkN5J",1.26003349991515,0,"rewarded","unrewarded","unrewarded",FALSE,1,0.1,0,FALSE
"410","ADHD","start_with_long_delay"," test",1,7,12,3,4,3,4,0.55,0.65," left",1,0.35,0.45,0.55,0.65,"rewarded",7,11,1,6,0.5,1,"3i8lkN5J",0.702614899957553,0,"rewarded","rewarded","unrewarded",FALSE,1,0.1,0,FALSE
"411","ADHD","start_with_long_delay"," test",1,7,13,3,4,4,3,0.55,0.65," right",2,0.35,0.45,0.55,0.65,"rewarded",8,12,1,6,0.5,1,"3i8lkN5J",0.982346300035715,1,"rewarded","rewarded","rewarded",TRUE,0,0.1,0,FALSE
"412","ADHD","start_with_long_delay"," test",1,7,14,1,2,2,1,0.35,0.45," right",2,0.35,0.45,0.55,0.65,"unrewarded",8,12,1,6,0.5,1,"3i8lkN5J",1.1080004000105,0,"rewarded","rewarded","rewarded",FALSE,1,0.1,0,FALSE
"413","ADHD","start_with_long_delay"," test",1,7,15,3,4,3,4,0.55,0.65," left",1,0.35,0.45,0.55,0.65,"rewarded",9,13,1,6,0.5,1,"3i8lkN5J",0.676866400055587,0,"unrewarded","rewarded","rewarded",FALSE,0,0.1,0,FALSE
"414","ADHD","start_with_long_delay"," test",1,7,16,3,1,3,1,0.55,0.35," left",1,0.35,0.45,0.55,0.65,"rewarded",10,14,1,6,0.5,1,"3i8lkN5J",0.503667500102893,1,"rewarded","unrewarded","rewarded",TRUE,1,0.2,1,FALSE
"415","ADHD","start_with_long_delay"," test",1,7,17,3,1,1,3,0.55,0.35," right",2,0.35,0.45,0.55,0.65,"rewarded",11,15,1,6,0.5,1,"3i8lkN5J",0.628231999929994,1,"rewarded","rewarded","unrewarded",TRUE,0,0.2,1,FALSE
"416","ADHD","start_with_long_delay"," test",1,7,18,3,1,3,1,0.55,0.35," left",1,0.35,0.45,0.55,0.65,"unrewarded",11,15,1,6,0.5,1,"3i8lkN5J",0.428343399893492,1,"rewarded","rewarded","rewarded",TRUE,0,0.2,1,FALSE
"417","ADHD","start_with_long_delay"," test",1,7,19,4,2,2,4,0.65,0.45," right",2,0.35,0.45,0.55,0.65,"rewarded",12,16,1,6,0.5,1,"3i8lkN5J",1.04345890018158,0,"unrewarded","rewarded","rewarded",FALSE,0,0.2,1,FALSE
"418","ADHD","start_with_long_delay"," test",1,7,20,3,1,3,1,0.55,0.35," left",1,0.35,0.45,0.55,0.65,"unrewarded",12,16,1,6,0.5,1,"3i8lkN5J",0.518812299938872,0,"rewarded","unrewarded","rewarded",FALSE,0,0.2,1,FALSE
"419","ADHD","start_with_long_delay"," test",1,7,21,4,2,4,2,0.65,0.45," left",1,0.35,0.45,0.55,0.65,"unrewarded",12,16,1,6,0.5,1,"3i8lkN5J",0.834940700093284,0,"unrewarded","rewarded","unrewarded",FALSE,1,0.2,1,FALSE
"420","ADHD","start_with_long_delay"," test",1,7,22,4,2,2,4,0.65,0.45," right",2,0.35,0.45,0.55,0.65,"unrewarded",12,16,1,6,0.5,1,"3i8lkN5J",1.57465550000779,1,"unrewarded","unrewarded","rewarded",TRUE,0,0.2,1,FALSE
"421","ADHD","start_with_long_delay"," test",1,7,23,3,4,4,3,0.55,0.65," right",2,0.35,0.45,0.55,0.65,"unrewarded",12,16,1,6,0.5,1,"3i8lkN5J",0.568274899851531,0,"unrewarded","unrewarded","unrewarded",TRUE,1,0.1,0,FALSE
"422","ADHD","start_with_long_delay"," test",1,7,24,3,1,3,1,0.55,0.35," left",1,0.35,0.45,0.55,0.65,"rewarded",13,17,1,6,0.5,1,"3i8lkN5J",0.630112299928442,1,"unrewarded","unrewarded","unrewarded",TRUE,0,0.2,1,FALSE
"423","ADHD","start_with_long_delay"," test",1,7,25,4,2,2,4,0.65,0.45," right",2,0.35,0.45,0.55,0.65,"rewarded",14,18,1,6,0.5,1,"3i8lkN5J",2.68919390020892,0,"rewarded","unrewarded","unrewarded",FALSE,0,0.2,1,FALSE
"424","ADHD","start_with_long_delay"," test",2,1,1,2,1,1,2,0.45,0.35," right",2,0.35,0.45,0.55,0.65,"unrewarded",0,18,1,6,0.5,1,"3i8lkN5J",1.8728720000945,0,"rewarded","rewarded","unrewarded",FALSE,1,0.1,1,FALSE
"425","ADHD","start_with_long_delay"," test",2,1,2,3,2,3,2,0.55,0.45," left",1,0.35,0.45,0.55,0.65,"rewarded",1,19,1,6,0.5,1,"3i8lkN5J",0.626923299860209,0,"unrewarded","rewarded","rewarded",TRUE,0,0.1,1,FALSE
"426","ADHD","start_with_long_delay"," test",2,1,3,4,2,2,4,0.65,0.45," right",2,0.35,0.45,0.55,0.65,"rewarded",2,20,1,6,0.5,1,"3i8lkN5J",0.718876800034195,0,"rewarded","unrewarded","rewarded",FALSE,0,0.2,1,FALSE
"427","ADHD","start_with_long_delay"," test",2,1,4,4,2,2,4,0.65,0.45," right",2,0.35,0.45,0.55,0.65,"rewarded",3,21,1,6,0.5,1,"3i8lkN5J",0.662850300082937,1,"rewarded","rewarded","unrewarded",TRUE,1,0.2,1,FALSE
"428","ADHD","start_with_long_delay"," test",2,1,5,3,1,3,1,0.55,0.35," left",1,0.35,0.45,0.55,0.65,"rewarded",4,22,1,6,0.5,1,"3i8lkN5J",0.816895499825478,0,"rewarded","rewarded","rewarded",FALSE,0,0.2,1,FALSE
"429","ADHD","start_with_long_delay"," test",2,1,6,3,1,3,1,0.55,0.35," left",1,0.35,0.45,0.55,0.65,"rewarded",5,23,1,6,0.5,1,"3i8lkN5J",0.63656620006077,1,"rewarded","rewarded","rewarded",TRUE,1,0.2,1,FALSE
"430","ADHD","start_with_long_delay"," test",2,1,7,4,2,2,4,0.65,0.45," right",2,0.35,0.45,0.55,0.65,"rewarded",6,24,1,6,0.5,1,"3i8lkN5J",0.572213199920952,0,"rewarded","rewarded","rewarded",FALSE,0,0.2,1,FALSE
"431","ADHD","start_with_long_delay"," test",2,1,8,1,2,2,1,0.35,0.45," right",2,0.35,0.45,0.55,0.65,"rewarded",7,25,1,6,0.5,1,"3i8lkN5J",1.09819629997946,0,"rewarded","rewarded","rewarded",FALSE,1,0.1,0,FALSE
"432","ADHD","start_with_long_delay"," test",2,1,9,3,1,1,3,0.55,0.35," right",2,0.35,0.45,0.55,0.65,"rewarded",8,26,1,6,0.5,1,"3i8lkN5J",1.04631839995272,0,"rewarded","rewarded","rewarded",TRUE,1,0.2,1,FALSE
"433","ADHD","start_with_long_delay"," test",2,1,10,1,2,1,2,0.35,0.45," left",1,0.35,0.45,0.55,0.65,"unrewarded",8,26,1,6,0.5,1,"3i8lkN5J",1.08350290008821,0,"rewarded","rewarded","rewarded",FALSE,0,0.1,0,FALSE
"434","ADHD","start_with_long_delay"," test",2,1,11,3,4,3,4,0.55,0.65," left",1,0.35,0.45,0.55,0.65,"unrewarded",8,26,1,6,0.5,1,"3i8lkN5J",1.01067420002073,0,"unrewarded","rewarded","rewarded",FALSE,1,0.1,0,FALSE
"435","ADHD","start_with_long_delay"," test",2,1,12,3,1,3,1,0.55,0.35," left",1,0.35,0.45,0.55,0.65,"unrewarded",8,26,1,6,0.5,1,"3i8lkN5J",0.558514899807051,1,"unrewarded","unrewarded","rewarded",TRUE,1,0.2,1,FALSE
"436","ADHD","start_with_long_delay"," test",2,1,13,3,2,2,3,0.55,0.45," right",2,0.35,0.45,0.55,0.65,"rewarded",9,27,1,6,0.5,1,"3i8lkN5J",1.24106039991602,1,"unrewarded","unrewarded","unrewarded",TRUE,0,0.1,1,FALSE
"437","ADHD","start_with_long_delay"," test",2,1,14,3,2,3,2,0.55,0.45," left",1,0.35,0.45,0.55,0.65,"rewarded",10,28,1,6,0.5,1,"3i8lkN5J",0.539704599883407,1,"rewarded","unrewarded","unrewarded",TRUE,0,0.1,1,FALSE
"438","ADHD","start_with_long_delay"," test",2,1,15,3,1,3,1,0.55,0.35," left",1,0.35,0.45,0.55,0.65,"rewarded",11,29,1,6,0.5,1,"3i8lkN5J",0.588018900016323,1,"rewarded","rewarded","unrewarded",TRUE,1,0.2,1,FALSE
"439","ADHD","start_with_long_delay"," test",2,1,16,3,1,3,1,0.55,0.35," left",1,0.35,0.45,0.55,0.65,"rewarded",12,30,1,6,0.5,1,"3i8lkN5J",0.368645899929106,1,"rewarded","rewarded","rewarded",TRUE,1,0.2,1,FALSE
"440","ADHD","start_with_long_delay"," test",2,1,17,4,2,4,2,0.65,0.45," left",1,0.35,0.45,0.55,0.65,"rewarded",13,31,1,6,0.5,1,"3i8lkN5J",0.912109399912879,0,"rewarded","rewarded","rewarded",FALSE,1,0.2,1,FALSE
"441","ADHD","start_with_long_delay"," test",2,1,18,1,2,1,2,0.35,0.45," left",1,0.35,0.45,0.55,0.65,"rewarded",14,32,1,6,0.5,1,"3i8lkN5J",1.48205800005235,0,"rewarded","rewarded","rewarded",FALSE,1,0.1,0,FALSE
"442","ADHD","start_with_long_delay"," test",2,1,19,1,2,2,1,0.35,0.45," right",2,0.35,0.45,0.55,0.65,"unrewarded",14,32,1,6,0.5,1,"3i8lkN5J",0.771751699969172,1,"rewarded","rewarded","rewarded",TRUE,0,0.1,0,FALSE
"443","ADHD","start_with_long_delay"," test",2,1,20,4,3,4,3,0.65,0.55," left",1,0.35,0.45,0.55,0.65,"unrewarded",14,32,1,6,0.5,1,"3i8lkN5J",0.601412700023502,0,"unrewarded","rewarded","rewarded",FALSE,0,0.1,1,FALSE
"444","ADHD","start_with_long_delay"," test",2,1,21,3,2,2,3,0.55,0.45," right",2,0.35,0.45,0.55,0.65,"unrewarded",14,32,1,6,0.5,1,"3i8lkN5J",0.4590041001793,0,"unrewarded","unrewarded","rewarded",FALSE,0,0.1,1,FALSE
"445","ADHD","start_with_long_delay"," test",2,1,22,3,1,1,3,0.55,0.35," right",2,0.35,0.45,0.55,0.65,"unrewarded",14,32,1,6,0.5,1,"3i8lkN5J",0.518071800004691,1,"unrewarded","unrewarded","unrewarded",TRUE,1,0.2,1,FALSE
"446","ADHD","start_with_long_delay"," test",2,1,23,3,4,4,3,0.55,0.65," right",2,0.35,0.45,0.55,0.65,"unrewarded",14,32,1,6,0.5,1,"3i8lkN5J",0.790634999983013,1,"unrewarded","unrewarded","unrewarded",TRUE,1,0.1,0,FALSE
"447","ADHD","start_with_long_delay"," test",2,1,24,1,2,1,2,0.35,0.45," left",1,0.35,0.45,0.55,0.65,"rewarded",15,33,1,6,0.5,1,"3i8lkN5J",0.770856099901721,0,"unrewarded","unrewarded","unrewarded",FALSE,0,0.1,0,FALSE
"448","ADHD","start_with_long_delay"," test",2,1,25,3,4,3,4,0.55,0.65," left",1,0.35,0.45,0.55,0.65,"unrewarded",15,33,1,6,0.5,1,"3i8lkN5J",0.988168499898165,0,"rewarded","unrewarded","unrewarded",FALSE,1,0.1,0,FALSE
"449","ADHD","start_with_long_delay"," test",3,7,1,2,3,3,2,0.45,0.55," right",2,0.35,0.45,0.55,0.65,"unrewarded",0,33,1,6,0.5,1,"3i8lkN5J",1.76017119991593,0,"unrewarded","rewarded","unrewarded",TRUE,0,0.1,0,FALSE
"450","ADHD","start_with_long_delay"," test",3,7,2,3,2,3,2,0.55,0.45," left",1,0.35,0.45,0.55,0.65,"unrewarded",0,33,1,6,0.5,1,"3i8lkN5J",0.897505100117996,0,"unrewarded","unrewarded","rewarded",TRUE,0,0.1,1,FALSE
"451","ADHD","start_with_long_delay"," test",3,7,3,4,3,4,3,0.65,0.55," left",1,0.35,0.45,0.55,0.65,"rewarded",1,34,1,6,0.5,1,"3i8lkN5J",0.642056400189176,0,"unrewarded","unrewarded","unrewarded",TRUE,1,0.1,1,FALSE
"452","ADHD","start_with_long_delay"," test",3,7,4,4,2,2,4,0.65,0.45," right",2,0.35,0.45,0.55,0.65,"rewarded",2,35,1,6,0.5,1,"3i8lkN5J",0.530371399829164,1,"rewarded","unrewarded","unrewarded",TRUE,0,0.2,1,FALSE
"453","ADHD","start_with_long_delay"," test",3,7,5,2,3,3,2,0.45,0.55," right",2,0.35,0.45,0.55,0.65,"rewarded",3,36,1,6,0.5,1,"3i8lkN5J",1.50194270000793,0,"rewarded","rewarded","unrewarded",FALSE,1,0.1,0,FALSE
"454","ADHD","start_with_long_delay"," test",3,7,6,2,3,2,3,0.45,0.55," left",1,0.35,0.45,0.55,0.65,"unrewarded",3,36,1,6,0.5,1,"3i8lkN5J",1.02650010003708,1,"rewarded","rewarded","rewarded",TRUE,0,0.1,0,FALSE
"455","ADHD","start_with_long_delay"," test",3,7,7,3,2,2,3,0.55,0.45," right",2,0.35,0.45,0.55,0.65,"rewarded",4,37,1,6,0.5,1,"3i8lkN5J",0.60672890022397,0,"unrewarded","rewarded","rewarded",TRUE,0,0.1,1,FALSE
"456","ADHD","start_with_long_delay"," test",3,7,8,3,1,3,1,0.55,0.35," left",1,0.35,0.45,0.55,0.65,"unrewarded",4,37,1,6,0.5,1,"3i8lkN5J",0.998662499943748,1,"rewarded","unrewarded","rewarded",TRUE,0,0.2,1,FALSE
"457","ADHD","start_with_long_delay"," test",3,7,9,1,2,2,1,0.35,0.45," right",2,0.35,0.45,0.55,0.65,"unrewarded",4,37,1,6,0.5,1,"3i8lkN5J",0.998435799963772,0,"unrewarded","rewarded","unrewarded",FALSE,0,0.1,0,FALSE
"458","ADHD","start_with_long_delay"," test",3,7,10,4,3,4,3,0.65,0.55," left",1,0.35,0.45,0.55,0.65,"rewarded",5,38,1,6,0.5,1,"3i8lkN5J",0.348919800017029,0,"unrewarded","unrewarded","rewarded",FALSE,0,0.1,1,FALSE
"459","ADHD","start_with_long_delay"," test",3,7,11,3,1,3,1,0.55,0.35," left",1,0.35,0.45,0.55,0.65,"rewarded",6,39,1,6,0.5,1,"3i8lkN5J",0.947532699909061,0,"rewarded","unrewarded","unrewarded",FALSE,1,0.2,1,FALSE
"460","ADHD","start_with_long_delay"," test",3,7,12,3,2,2,3,0.55,0.45," right",2,0.35,0.45,0.55,0.65,"rewarded",7,40,1,6,0.5,1,"3i8lkN5J",0.61431650002487,1,"rewarded","rewarded","unrewarded",TRUE,0,0.1,1,FALSE
"461","ADHD","start_with_long_delay"," test",3,7,13,4,1,4,1,0.65,0.35," left",1,0.35,0.45,0.55,0.65,"unrewarded",7,40,1,6,0.5,1,"3i8lkN5J",0.420858799945563,0,"rewarded","rewarded","rewarded",FALSE,0,0.3,1,FALSE
"462","ADHD","start_with_long_delay"," test",3,7,14,2,1,1,2,0.45,0.35," right",2,0.35,0.45,0.55,0.65,"rewarded",8,41,1,6,0.5,1,"3i8lkN5J",1.19006220018491,0,"unrewarded","rewarded","rewarded",FALSE,0,0.1,1,FALSE
"463","ADHD","start_with_long_delay"," test",3,7,15,4,2,4,2,0.65,0.45," left",1,0.35,0.45,0.55,0.65,"rewarded",9,42,1,6,0.5,1,"3i8lkN5J",0.578853699844331,0,"rewarded","unrewarded","rewarded",TRUE,0,0.2,1,FALSE
"464","ADHD","start_with_long_delay"," test",3,7,16,2,1,1,2,0.45,0.35," right",2,0.35,0.45,0.55,0.65,"unrewarded",9,42,1,6,0.5,1,"3i8lkN5J",1.01669460022822,0,"rewarded","rewarded","unrewarded",FALSE,0,0.1,1,FALSE
