"","group","counterbalance","block_type","block","delay_condition","trial","chosen","unchosen","offer_right_image","exp_value_chosen","exp_value_unchosen","choice_location","choice_key","exp_value1","exp_value2","exp_value3","exp_value4","reward","coins_per_block","coins_per_task","ITI_duration","rt_deadline","choice_feedback_duration","outcome_duration","subject","rt","stay","reward_oneback","reward_twoback","reward_threeback","reoffer_chosen_oneback","stay_key","delta_exp_value","acc","offer1","offer2","choice","selected_offer","offer_left_image","cum_reward_ch1","cum_reward_ch2","cum_reward_ch3","cum_reward_ch4","cum_visit_ch1","cum_visit_ch2","cum_visit_ch3","cum_visit_ch4","mean_reward_ch1","mean_reward_ch2","mean_reward_ch3","mean_reward_ch4","cum_reward_chosen","cum_reward_unchosen","cum_visit_chosen","cum_visit_unchosen","mean_reward_chosen","mean_reward_unchosen","subj_acc","abort","first_trial_in_block"
"1","ADHD","start_with_long_delay"," test",1,"long",2,1,4,1,0.35,0.65," right",2,0.35,0.45,0.55,0.65,"unrewarded",0,4,1,6,0.5,1,"0DKx3BNQ",1.63120379997417,1,"unrewarded",NA,NA,TRUE,0,0.3,0,4,1,1,1,4,0,0,0,0,1,0,0,0,0,0,0,0,0,0,1,0,0,0,NA,FALSE,1
"2","ADHD","start_with_long_delay"," test",1,"long",3,3,4,4,0.55,0.65," left",1,0.35,0.45,0.55,0.65,"rewarded",1,5,1,6,0.5,1,"0DKx3BNQ",1.78134479979053,0,"unrewarded","unrewarded",NA,FALSE,0,0.1,0,3,4,3,0,3,0,0,1,0,1,0,1,0,0,0,1,0,1,0,1,0,1,0,1,FALSE,0
"3","ADHD","start_with_long_delay"," test",1,"long",4,1,4,1,0.35,0.65," right",2,0.35,0.45,0.55,0.65,"unrewarded",1,5,1,6,0.5,1,"0DKx3BNQ",1.87981699989177,0,"rewarded","unrewarded","unrewarded",FALSE,0,0.3,0,4,1,1,1,4,0,0,1,0,2,0,1,0,0,0,1,0,0,0,2,0,0,0,NA,FALSE,0
"4","ADHD","start_with_long_delay"," test",1,"long",5,1,4,4,0.35,0.65," left",1,0.35,0.45,0.55,0.65,"unrewarded",1,5,1,6,0.5,1,"0DKx3BNQ",1.15227710013278,1,"unrewarded","rewarded","unrewarded",TRUE,0,0.3,0,1,4,1,0,1,0,0,1,0,3,0,1,0,0,0,1,0,0,0,3,0,0,0,NA,FALSE,0
"5","ADHD","start_with_long_delay"," test",1,"long",6,4,1,1,0.65,0.35," left",1,0.35,0.45,0.55,0.65,"rewarded",2,6,1,6,0.5,1,"0DKx3BNQ",1.42336850007996,0,"unrewarded","unrewarded","rewarded",TRUE,1,0.3,1,4,1,4,0,4,0,0,1,1,3,0,1,1,0,0,1,1,1,0,1,3,1,0,1,FALSE,0
"6","ADHD","start_with_long_delay"," test",1,"long",7,3,1,1,0.55,0.35," left",1,0.35,0.45,0.55,0.65,"rewarded",3,7,1,6,0.5,1,"0DKx3BNQ",1.29564599995501,0,"rewarded","unrewarded","unrewarded",FALSE,1,0.2,1,3,1,3,0,3,0,0,2,1,3,0,2,1,0,0,1,1,2,0,2,3,1,0,1,FALSE,0
"7","ADHD","start_with_long_delay"," test",1,"long",8,3,4,3,0.55,0.65," right",2,0.35,0.45,0.55,0.65,"rewarded",4,8,1,6,0.5,1,"0DKx3BNQ",1.040378900012,1,"rewarded","rewarded","unrewarded",TRUE,0,0.1,0,4,3,3,1,4,0,0,3,1,3,0,3,1,0,0,1,1,3,1,3,1,1,1,0,FALSE,0
"8","ADHD","start_with_long_delay"," test",1,"long",9,3,4,3,0.55,0.65," right",2,0.35,0.45,0.55,0.65,"rewarded",5,9,1,6,0.5,1,"0DKx3BNQ",0.903806300135329,1,"rewarded","rewarded","rewarded",TRUE,1,0.1,0,4,3,3,1,4,0,0,4,1,3,0,4,1,0,0,1,1,4,1,4,1,1,1,0,FALSE,0
"9","ADHD","start_with_long_delay"," test",1,"long",10,2,4,4,0.45,0.65," left",1,0.35,0.45,0.55,0.65,"unrewarded",5,9,1,6,0.5,1,"0DKx3BNQ",0.87246589991264,0,"rewarded","rewarded","rewarded",FALSE,0,0.2,0,2,4,2,0,2,0,0,4,1,3,1,4,1,0,0,1,1,0,1,1,1,0,1,0,FALSE,0
"10","ADHD","start_with_long_delay"," test",1,"long",11,2,3,3,0.45,0.55," left",1,0.35,0.45,0.55,0.65,"unrewarded",5,9,1,6,0.5,1,"0DKx3BNQ",1.75470370007679,1,"unrewarded","rewarded","rewarded",TRUE,1,0.1,0,2,3,2,0,2,0,0,4,1,3,2,4,1,0,0,1,1,0,4,2,4,0,1,0,FALSE,0
"11","ADHD","start_with_long_delay"," test",1,"long",12,3,1,1,0.55,0.35," left",1,0.35,0.45,0.55,0.65,"unrewarded",5,9,1,6,0.5,1,"0DKx3BNQ",1.30906100012362,0,"unrewarded","unrewarded","rewarded",FALSE,1,0.2,1,3,1,3,0,3,0,0,4,1,3,2,5,1,0,0,0.8,1,4,0,5,3,0.8,0,1,FALSE,0
"12","ADHD","start_with_long_delay"," test",1,"long",13,3,2,3,0.55,0.45," right",2,0.35,0.45,0.55,0.65,"rewarded",6,10,1,6,0.5,1,"0DKx3BNQ",0.5203249999322,1,"unrewarded","unrewarded","unrewarded",TRUE,0,0.1,1,2,3,3,1,2,0,0,5,1,3,2,6,1,0,0,0.833333333333333,1,5,0,6,2,0.833333333333333,0,1,FALSE,0
"13","ADHD","start_with_long_delay"," test",1,"long",14,3,4,3,0.55,0.65," right",2,0.35,0.45,0.55,0.65,"unrewarded",6,10,1,6,0.5,1,"0DKx3BNQ",0.421761199831963,1,"rewarded","unrewarded","unrewarded",TRUE,1,0.1,0,4,3,3,1,4,0,0,5,1,3,2,7,1,0,0,0.714285714285714,1,5,1,7,1,0.714285714285714,1,0,FALSE,0
"14","ADHD","start_with_long_delay"," test",1,"long",15,3,2,2,0.55,0.45," left",1,0.35,0.45,0.55,0.65,"rewarded",7,11,1,6,0.5,1,"0DKx3BNQ",0.889571400126442,1,"unrewarded","rewarded","unrewarded",TRUE,0,0.1,1,3,2,3,0,3,0,0,6,1,3,2,8,1,0,0,0.75,1,6,0,8,2,0.75,0,1,FALSE,0
"15","ADHD","start_with_long_delay"," test",1,"long",16,3,2,2,0.55,0.45," left",1,0.35,0.45,0.55,0.65,"unrewarded",7,11,1,6,0.5,1,"0DKx3BNQ",0.662953400053084,1,"rewarded","unrewarded","rewarded",TRUE,1,0.1,1,3,2,3,0,3,0,0,6,1,3,2,9,1,0,0,0.666666666666667,1,6,0,9,2,0.666666666666667,0,1,FALSE,0
"16","ADHD","start_with_long_delay"," test",1,"long",17,2,3,2,0.45,0.55," right",2,0.35,0.45,0.55,0.65,"unrewarded",7,11,1,6,0.5,1,"0DKx3BNQ",1.79910729988478,0,"unrewarded","rewarded","unrewarded",TRUE,0,0.1,0,3,2,2,1,3,0,0,6,1,3,3,9,1,0,0,0.666666666666667,1,0,6,3,9,0,0.666666666666667,0,FALSE,0
"17","ADHD","start_with_long_delay"," test",1,"long",18,4,1,1,0.65,0.35," left",1,0.35,0.45,0.55,0.65,"unrewarded",7,11,1,6,0.5,1,"0DKx3BNQ",1.20441439980641,0,"unrewarded","unrewarded","rewarded",FALSE,0,0.3,1,4,1,4,0,4,0,0,6,1,3,3,9,2,0,0,0.666666666666667,0.5,1,0,2,3,0.5,0,1,FALSE,0
"18","ADHD","start_with_long_delay"," test",1,"long",19,3,2,3,0.55,0.45," right",2,0.35,0.45,0.55,0.65,"rewarded",8,12,1,6,0.5,1,"0DKx3BNQ",1.21572580002248,0,"unrewarded","unrewarded","unrewarded",FALSE,0,0.1,1,2,3,3,1,2,0,0,7,1,3,3,10,2,0,0,0.7,0.5,7,0,10,3,0.7,0,1,FALSE,0
"19","ADHD","start_with_long_delay"," test",1,"long",20,3,1,1,0.55,0.35," left",1,0.35,0.45,0.55,0.65,"rewarded",9,13,1,6,0.5,1,"0DKx3BNQ",0.748560500098392,1,"rewarded","unrewarded","unrewarded",TRUE,0,0.2,1,3,1,3,0,3,0,0,8,1,3,3,11,2,0,0,0.727272727272727,0.5,8,0,11,3,0.727272727272727,0,1,FALSE,0
"20","ADHD","start_with_long_delay"," test",1,"long",21,4,1,1,0.65,0.35," left",1,0.35,0.45,0.55,0.65,"unrewarded",9,13,1,6,0.5,1,"0DKx3BNQ",0.902401600033045,0,"rewarded","rewarded","unrewarded",FALSE,1,0.3,1,4,1,4,0,4,0,0,8,1,3,3,11,3,0,0,0.727272727272727,0.333333333333333,1,0,3,3,0.333333333333333,0,1,FALSE,0
"21","ADHD","start_with_long_delay"," test",1,"long",22,4,1,1,0.65,0.35," left",1,0.35,0.45,0.55,0.65,"rewarded",10,14,1,6,0.5,1,"0DKx3BNQ",0.564157899934798,1,"unrewarded","rewarded","rewarded",TRUE,1,0.3,1,4,1,4,0,4,0,0,8,2,3,3,11,4,0,0,0.727272727272727,0.5,2,0,4,3,0.5,0,1,FALSE,0
"22","ADHD","start_with_long_delay"," test",1,"long",23,3,2,2,0.55,0.45," left",1,0.35,0.45,0.55,0.65,"unrewarded",10,14,1,6,0.5,1,"0DKx3BNQ",0.584349000127986,0,"rewarded","unrewarded","rewarded",FALSE,1,0.1,1,3,2,3,0,3,0,0,8,2,3,3,12,4,0,0,0.666666666666667,0.5,8,0,12,3,0.666666666666667,0,1,FALSE,0
"23","ADHD","start_with_long_delay"," test",1,"long",24,3,1,1,0.55,0.35," left",1,0.35,0.45,0.55,0.65,"rewarded",11,15,1,6,0.5,1,"0DKx3BNQ",0.629672199953347,1,"unrewarded","rewarded","unrewarded",TRUE,1,0.2,1,3,1,3,0,3,0,0,9,2,3,3,13,4,0,0,0.692307692307692,0.5,9,0,13,3,0.692307692307692,0,1,FALSE,0
"24","ADHD","start_with_long_delay"," test",1,"long",25,3,2,2,0.55,0.45," left",1,0.35,0.45,0.55,0.65,"unrewarded",11,15,1,6,0.5,1,"0DKx3BNQ",0.352905200095847,1,"rewarded","unrewarded","rewarded",TRUE,1,0.1,1,3,2,3,0,3,0,0,9,2,3,3,14,4,0,0,0.642857142857143,0.5,9,0,14,3,0.642857142857143,0,1,FALSE,0
"25","ADHD","start_with_long_delay"," test",2,"short",1,1,3,3,0.35,0.55," left",1,0.35,0.45,0.55,0.65,"unrewarded",0,15,1,6,0.5,1,"0DKx3BNQ",0.610401699785143,0,"unrewarded","rewarded","unrewarded",TRUE,1,0.2,0,1,3,1,0,1,0,0,0,0,0,0,0,0,0,0,0,0,0,0,0,0,0,0,NA,FALSE,1
"26","ADHD","start_with_long_delay"," test",2,"short",2,3,2,2,0.55,0.45," left",1,0.35,0.45,0.55,0.65,"rewarded",1,16,1,6,0.5,1,"0DKx3BNQ",0.770897200098261,0,"unrewarded","unrewarded","rewarded",FALSE,1,0.1,1,3,2,3,0,3,0,0,1,0,0,0,1,0,0,0,1,0,1,0,1,0,1,0,1,FALSE,0
"27","ADHD","start_with_long_delay"," test",2,"short",3,3,2,3,0.55,0.45," right",2,0.35,0.45,0.55,0.65,"rewarded",2,17,1,6,0.5,1,"0DKx3BNQ",0.85696900007315,1,"rewarded","unrewarded","unrewarded",TRUE,0,0.1,1,2,3,3,1,2,0,0,2,0,0,0,2,0,0,0,1,0,2,0,2,0,1,0,1,FALSE,0
"28","ADHD","start_with_long_delay"," test",2,"short",4,4,1,1,0.65,0.35," left",1,0.35,0.45,0.55,0.65,"unrewarded",2,17,1,6,0.5,1,"0DKx3BNQ",1.13569499994628,0,"rewarded","rewarded","unrewarded",FALSE,0,0.3,1,4,1,4,0,4,0,0,2,0,0,0,2,1,0,0,1,0,0,0,1,0,0,0,NA,FALSE,0
"29","ADHD","start_with_long_delay"," test",2,"short",5,3,4,4,0.55,0.65," left",1,0.35,0.45,0.55,0.65,"unrewarded",2,17,1,6,0.5,1,"0DKx3BNQ",0.898848399985582,0,"unrewarded","rewarded","rewarded",TRUE,1,0.1,0,3,4,3,0,3,0,0,2,0,0,0,3,1,0,0,0.666666666666667,0,2,0,3,1,0.666666666666667,0,1,FALSE,0
"30","ADHD","start_with_long_delay"," test",2,"short",6,4,2,4,0.65,0.45," right",2,0.35,0.45,0.55,0.65,"unrewarded",2,17,1,6,0.5,1,"0DKx3BNQ",1.152155400021,0,"unrewarded","unrewarded","rewarded",FALSE,0,0.2,1,2,4,4,1,2,0,0,2,0,0,0,3,2,0,0,0.666666666666667,0,0,0,2,0,0,0,NA,FALSE,0
"31","ADHD","start_with_long_delay"," test",2,"short",7,4,1,1,0.65,0.35," left",1,0.35,0.45,0.55,0.65,"rewarded",3,18,1,6,0.5,1,"0DKx3BNQ",1.30244640004821,1,"unrewarded","unrewarded","unrewarded",TRUE,0,0.3,1,4,1,4,0,4,0,0,2,1,0,0,3,3,0,0,0.666666666666667,0.333333333333333,1,0,3,0,0.333333333333333,0,1,FALSE,0
"32","ADHD","start_with_long_delay"," test",2,"short",8,4,1,1,0.65,0.35," left",1,0.35,0.45,0.55,0.65,"rewarded",4,19,1,6,0.5,1,"0DKx3BNQ",0.6506658999715,1,"rewarded","unrewarded","unrewarded",TRUE,1,0.3,1,4,1,4,0,4,0,0,2,2,0,0,3,4,0,0,0.666666666666667,0.5,2,0,4,0,0.5,0,1,FALSE,0
"33","ADHD","start_with_long_delay"," test",2,"short",9,3,2,2,0.55,0.45," left",1,0.35,0.45,0.55,0.65,"rewarded",5,20,1,6,0.5,1,"0DKx3BNQ",0.698238100158051,0,"rewarded","rewarded","unrewarded",FALSE,1,0.1,1,3,2,3,0,3,0,0,3,2,0,0,4,4,0,0,0.75,0.5,3,0,4,0,0.75,0,1,FALSE,0
"34","ADHD","start_with_long_delay"," test",2,"short",10,2,4,4,0.45,0.65," left",1,0.35,0.45,0.55,0.65,"unrewarded",5,20,1,6,0.5,1,"0DKx3BNQ",0.912811300018802,0,"rewarded","rewarded","rewarded",FALSE,1,0.2,0,2,4,2,0,2,0,0,3,2,0,1,4,4,0,0,0.75,0.5,0,2,1,4,0,0.5,0,FALSE,0
"35","ADHD","start_with_long_delay"," test",2,"short",11,2,4,2,0.45,0.65," right",2,0.35,0.45,0.55,0.65,"unrewarded",5,20,1,6,0.5,1,"0DKx3BNQ",0.642276200000197,1,"unrewarded","rewarded","rewarded",TRUE,0,0.2,0,4,2,2,1,4,0,0,3,2,0,2,4,4,0,0,0.75,0.5,0,2,2,4,0,0.5,0,FALSE,0
"36","ADHD","start_with_long_delay"," test",2,"short",12,3,4,3,0.55,0.65," right",2,0.35,0.45,0.55,0.65,"rewarded",6,21,1,6,0.5,1,"0DKx3BNQ",0.698239100165665,0,"unrewarded","unrewarded","rewarded",FALSE,1,0.1,0,4,3,3,1,4,0,0,4,2,0,2,5,4,0,0,0.8,0.5,4,2,5,4,0.8,0.5,1,FALSE,0
"37","ADHD","start_with_long_delay"," test",2,"short",13,3,2,2,0.55,0.45," left",1,0.35,0.45,0.55,0.65,"unrewarded",6,21,1,6,0.5,1,"0DKx3BNQ",0.709382999921218,1,"rewarded","unrewarded","unrewarded",TRUE,0,0.1,1,3,2,3,0,3,0,0,4,2,0,2,6,4,0,0,0.666666666666667,0.5,4,0,6,2,0.666666666666667,0,1,FALSE,0
"38","ADHD","start_with_long_delay"," test",2,"short",14,3,2,3,0.55,0.45," right",2,0.35,0.45,0.55,0.65,"unrewarded",6,21,1,6,0.5,1,"0DKx3BNQ",0.558165199821815,1,"unrewarded","rewarded","unrewarded",TRUE,0,0.1,1,2,3,3,1,2,0,0,4,2,0,2,7,4,0,0,0.571428571428571,0.5,4,0,7,2,0.571428571428571,0,1,FALSE,0
"39","ADHD","start_with_long_delay"," test",2,"short",15,1,2,2,0.35,0.45," left",1,0.35,0.45,0.55,0.65,"unrewarded",6,21,1,6,0.5,1,"0DKx3BNQ",2.18882800010033,0,"unrewarded","unrewarded","rewarded",FALSE,0,0.1,0,1,2,1,0,1,0,0,4,2,1,2,7,4,0,0,0.571428571428571,0.5,0,0,1,2,0,0,NA,FALSE,0
"40","ADHD","start_with_long_delay"," test",2,"short",16,2,4,4,0.45,0.65," left",1,0.35,0.45,0.55,0.65,"rewarded",7,22,1,6,0.5,1,"0DKx3BNQ",1.19424490001984,0,"unrewarded","unrewarded","unrewarded",FALSE,1,0.2,0,2,4,2,0,2,0,1,4,2,1,3,7,4,0,0.333333333333333,0.571428571428571,0.5,1,2,3,4,0.333333333333333,0.5,0,FALSE,0
"41","ADHD","start_with_long_delay"," test",2,"short",17,4,1,4,0.65,0.35," right",2,0.35,0.45,0.55,0.65,"unrewarded",7,22,1,6,0.5,1,"0DKx3BNQ",0.611239099875093,0,"rewarded","unrewarded","unrewarded",FALSE,0,0.3,1,1,4,4,1,1,0,1,4,2,1,3,7,5,0,0.333333333333333,0.571428571428571,0.4,2,0,5,1,0.4,0,1,FALSE,0
"42","ADHD","start_with_long_delay"," test",2,"short",18,4,1,4,0.65,0.35," right",2,0.35,0.45,0.55,0.65,"unrewarded",7,22,1,6,0.5,1,"0DKx3BNQ",0.839940200094134,1,"unrewarded","rewarded","unrewarded",TRUE,1,0.3,1,1,4,4,1,1,0,1,4,2,1,3,7,6,0,0.333333333333333,0.571428571428571,0.333333333333333,2,0,6,1,0.333333333333333,0,1,FALSE,0
"43","ADHD","start_with_long_delay"," test",2,"short",19,2,1,2,0.45,0.35," right",2,0.35,0.45,0.55,0.65,"rewarded",8,23,1,6,0.5,1,"0DKx3BNQ",0.733084399951622,0,"unrewarded","unrewarded","rewarded",FALSE,1,0.1,1,1,2,2,1,1,0,2,4,2,1,4,7,6,0,0.5,0.571428571428571,0.333333333333333,2,0,4,1,0.5,0,1,FALSE,0
"44","ADHD","start_with_long_delay"," test",2,"short",20,3,4,3,0.55,0.65," right",2,0.35,0.45,0.55,0.65,"rewarded",9,24,1,6,0.5,1,"0DKx3BNQ",0.535506499931216,0,"rewarded","unrewarded","unrewarded",FALSE,1,0.1,0,4,3,3,1,4,0,2,5,2,1,4,8,6,0,0.5,0.625,0.333333333333333,5,2,8,6,0.625,0.333333333333333,1,FALSE,0
"45","ADHD","start_with_long_delay"," test",2,"short",21,3,4,3,0.55,0.65," right",2,0.35,0.45,0.55,0.65,"rewarded",10,25,1,6,0.5,1,"0DKx3BNQ",0.359421300003305,1,"rewarded","rewarded","unrewarded",TRUE,1,0.1,0,4,3,3,1,4,0,2,6,2,1,4,9,6,0,0.5,0.666666666666667,0.333333333333333,6,2,9,6,0.666666666666667,0.333333333333333,1,FALSE,0
"46","ADHD","start_with_long_delay"," test",2,"short",22,4,1,1,0.65,0.35," left",1,0.35,0.45,0.55,0.65,"unrewarded",10,25,1,6,0.5,1,"0DKx3BNQ",1.00854839989915,0,"rewarded","rewarded","rewarded",FALSE,0,0.3,1,4,1,4,0,4,0,2,6,2,1,4,9,7,0,0.5,0.666666666666667,0.285714285714286,2,0,7,1,0.285714285714286,0,1,FALSE,0
"47","ADHD","start_with_long_delay"," test",2,"short",23,4,2,4,0.65,0.45," right",2,0.35,0.45,0.55,0.65,"rewarded",11,26,1,6,0.5,1,"0DKx3BNQ",0.938609399832785,1,"unrewarded","rewarded","rewarded",TRUE,0,0.2,1,2,4,4,1,2,0,2,6,3,1,4,9,8,0,0.5,0.666666666666667,0.375,3,2,8,4,0.375,0.5,0,FALSE,0
"48","ADHD","start_with_long_delay"," test",2,"short",24,4,1,1,0.65,0.35," left",1,0.35,0.45,0.55,0.65,"rewarded",12,27,1,6,0.5,1,"0DKx3BNQ",1.36529109999537,1,"rewarded","unrewarded","rewarded",TRUE,0,0.3,1,4,1,4,0,4,0,2,6,4,1,4,9,9,0,0.5,0.666666666666667,0.444444444444444,4,0,9,1,0.444444444444444,0,1,FALSE,0
"49","ADHD","start_with_long_delay"," test",2,"short",25,2,1,2,0.45,0.35," right",2,0.35,0.45,0.55,0.65,"rewarded",13,28,1,6,0.5,1,"0DKx3BNQ",0.85612399992533,0,"rewarded","rewarded","unrewarded",FALSE,0,0.1,1,1,2,2,1,1,0,3,6,4,1,5,9,9,0,0.6,0.666666666666667,0.444444444444444,3,0,5,1,0.6,0,1,FALSE,0
"50","ADHD","start_with_long_delay"," test",3,"long",1,3,4,4,0.55,0.65," left",1,0.35,0.45,0.55,0.65,"rewarded",1,29,1,6,0.5,1,"0DKx3BNQ",0.565893900115043,0,"rewarded","rewarded","rewarded",FALSE,0,0.1,0,3,4,3,0,3,0,0,0,0,0,0,0,0,0,0,0,0,0,0,0,0,0,0,NA,FALSE,1
"51","ADHD","start_with_long_delay"," test",3,"long",2,1,2,1,0.35,0.45," right",2,0.35,0.45,0.55,0.65,"rewarded",2,30,1,6,0.5,1,"0DKx3BNQ",0.664494200143963,0,"rewarded","rewarded","rewarded",FALSE,0,0.1,0,2,1,1,1,2,1,0,0,0,1,0,0,0,1,0,0,0,1,0,1,0,1,0,1,FALSE,0
"52","ADHD","start_with_long_delay"," test",3,"long",3,1,2,2,0.35,0.45," left",1,0.35,0.45,0.55,0.65,"unrewarded",2,30,1,6,0.5,1,"0DKx3BNQ",0.311492299893871,1,"rewarded","rewarded","rewarded",TRUE,0,0.1,0,1,2,1,0,1,1,0,0,0,2,0,0,0,0.5,0,0,0,1,0,2,0,0.5,0,1,FALSE,0
"53","ADHD","start_with_long_delay"," test",3,"long",4,3,2,2,0.55,0.45," left",1,0.35,0.45,0.55,0.65,"unrewarded",2,30,1,6,0.5,1,"0DKx3BNQ",0.899455599952489,0,"unrewarded","rewarded","rewarded",FALSE,1,0.1,1,3,2,3,0,3,1,0,0,0,2,0,1,0,0.5,0,0,0,0,0,1,0,0,0,NA,FALSE,0
"54","ADHD","start_with_long_delay"," test",3,"long",5,4,1,4,0.65,0.35," right",2,0.35,0.45,0.55,0.65,"rewarded",3,31,1,6,0.5,1,"0DKx3BNQ",0.823353300103918,0,"unrewarded","unrewarded","rewarded",FALSE,0,0.3,1,1,4,4,1,1,1,0,0,1,2,0,1,1,0.5,0,0,1,1,1,1,2,1,0.5,1,FALSE,0
"55","ADHD","start_with_long_delay"," test",3,"long",6,4,3,3,0.65,0.55," left",1,0.35,0.45,0.55,0.65,"unrewarded",3,31,1,6,0.5,1,"0DKx3BNQ",0.763864899985492,1,"rewarded","unrewarded","unrewarded",TRUE,0,0.1,1,4,3,4,0,4,1,0,0,1,2,0,1,2,0.5,0,0,0.5,1,0,2,1,0.5,0,1,FALSE,0
"56","ADHD","start_with_long_delay"," test",3,"long",7,4,2,4,0.65,0.45," right",2,0.35,0.45,0.55,0.65,"rewarded",4,32,1,6,0.5,1,"0DKx3BNQ",0.638510099845007,1,"unrewarded","rewarded","unrewarded",TRUE,0,0.2,1,2,4,4,1,2,1,0,0,2,2,0,1,3,0.5,0,0,0.666666666666667,2,0,3,0,0.666666666666667,0,1,FALSE,0
"57","ADHD","start_with_long_delay"," test",3,"long",8,3,2,3,0.55,0.45," right",2,0.35,0.45,0.55,0.65,"rewarded",5,33,1,6,0.5,1,"0DKx3BNQ",0.464539099950343,0,"rewarded","unrewarded","rewarded",FALSE,1,0.1,1,2,3,3,1,2,1,0,1,2,2,0,2,3,0.5,0,0.5,0.666666666666667,1,0,2,0,0.5,0,1,FALSE,0
"58","ADHD","start_with_long_delay"," test",3,"long",9,3,2,2,0.55,0.45," left",1,0.35,0.45,0.55,0.65,"rewarded",6,34,1,6,0.5,1,"0DKx3BNQ",0.382519300095737,1,"rewarded","rewarded","unrewarded",TRUE,0,0.1,1,3,2,3,0,3,1,0,2,2,2,0,3,3,0.5,0,0.666666666666667,0.666666666666667,2,0,3,0,0.666666666666667,0,1,FALSE,0
"59","ADHD","start_with_long_delay"," test",3,"long",10,3,2,2,0.55,0.45," left",1,0.35,0.45,0.55,0.65,"unrewarded",6,34,1,6,0.5,1,"0DKx3BNQ",0.379821500042453,1,"rewarded","rewarded","rewarded",TRUE,1,0.1,1,3,2,3,0,3,1,0,2,2,2,0,4,3,0.5,0,0.5,0.666666666666667,2,0,4,0,0.5,0,1,FALSE,0
"60","ADHD","start_with_long_delay"," test",3,"long",11,1,2,2,0.35,0.45," left",1,0.35,0.45,0.55,0.65,"unrewarded",6,34,1,6,0.5,1,"0DKx3BNQ",0.7616709000431,0,"unrewarded","rewarded","rewarded",FALSE,1,0.1,0,1,2,1,0,1,1,0,2,2,3,0,4,3,0.333333333333333,0,0.5,0.666666666666667,1,0,3,0,0.333333333333333,0,1,FALSE,0
"61","ADHD","start_with_long_delay"," test",3,"long",12,3,2,2,0.55,0.45," left",1,0.35,0.45,0.55,0.65,"unrewarded",6,34,1,6,0.5,1,"0DKx3BNQ",0.397485399851575,0,"unrewarded","unrewarded","rewarded",FALSE,1,0.1,1,3,2,3,0,3,1,0,2,2,3,0,5,3,0.333333333333333,0,0.4,0.666666666666667,2,0,5,0,0.4,0,1,FALSE,0
"62","ADHD","start_with_long_delay"," test",3,"long",13,1,4,4,0.35,0.65," left",1,0.35,0.45,0.55,0.65,"unrewarded",6,34,1,6,0.5,1,"0DKx3BNQ",1.10454700002447,0,"unrewarded","unrewarded","unrewarded",FALSE,1,0.3,0,1,4,1,0,1,1,0,2,2,4,0,5,3,0.25,0,0.4,0.666666666666667,1,2,4,3,0.25,0.666666666666667,0,FALSE,0
"63","ADHD","start_with_long_delay"," test",3,"long",14,2,1,1,0.45,0.35," left",1,0.35,0.45,0.55,0.65,"unrewarded",6,34,1,6,0.5,1,"0DKx3BNQ",1.44587579998188,0,"unrewarded","unrewarded","unrewarded",TRUE,1,0.1,1,2,1,2,0,2,1,0,2,2,4,1,5,3,0.25,0,0.4,0.666666666666667,0,1,1,4,0,0.25,0,FALSE,0
"64","ADHD","start_with_long_delay"," test",3,"long",15,3,4,3,0.55,0.65," right",2,0.35,0.45,0.55,0.65,"rewarded",7,35,1,6,0.5,1,"0DKx3BNQ",0.684265600051731,0,"unrewarded","unrewarded","unrewarded",FALSE,0,0.1,0,4,3,3,1,4,1,0,3,2,4,1,6,3,0.25,0,0.5,0.666666666666667,3,2,6,3,0.5,0.666666666666667,0,FALSE,0
"65","ADHD","start_with_long_delay"," test",3,"long",16,3,4,3,0.55,0.65," right",2,0.35,0.45,0.55,0.65,"unrewarded",7,35,1,6,0.5,1,"0DKx3BNQ",0.493815099820495,1,"rewarded","unrewarded","unrewarded",TRUE,1,0.1,0,4,3,3,1,4,1,0,3,2,4,1,7,3,0.25,0,0.428571428571429,0.666666666666667,3,2,7,3,0.428571428571429,0.666666666666667,0,FALSE,0
"66","ADHD","start_with_long_delay"," test",3,"long",17,3,4,4,0.55,0.65," left",1,0.35,0.45,0.55,0.65,"unrewarded",7,35,1,6,0.5,1,"0DKx3BNQ",0.367770900018513,1,"unrewarded","rewarded","unrewarded",TRUE,0,0.1,0,3,4,3,0,3,1,0,3,2,4,1,8,3,0.25,0,0.375,0.666666666666667,3,2,8,3,0.375,0.666666666666667,0,FALSE,0
"67","ADHD","start_with_long_delay"," test",3,"long",18,4,2,2,0.65,0.45," left",1,0.35,0.45,0.55,0.65,"rewarded",8,36,1,6,0.5,1,"0DKx3BNQ",0.816764699993655,0,"unrewarded","unrewarded","rewarded",FALSE,1,0.2,1,4,2,4,0,4,1,0,3,3,4,1,8,4,0.25,0,0.375,0.75,3,0,4,1,0.75,0,1,FALSE,0
"68","ADHD","start_with_long_delay"," test",3,"long",19,4,2,2,0.65,0.45," left",1,0.35,0.45,0.55,0.65,"rewarded",9,37,1,6,0.5,1,"0DKx3BNQ",0.54560670000501,1,"rewarded","unrewarded","unrewarded",TRUE,1,0.2,1,4,2,4,0,4,1,0,3,4,4,1,8,5,0.25,0,0.375,0.8,4,0,5,1,0.8,0,1,FALSE,0
"69","ADHD","start_with_long_delay"," test",3,"long",20,3,4,3,0.55,0.65," right",2,0.35,0.45,0.55,0.65,"rewarded",10,38,1,6,0.5,1,"0DKx3BNQ",0.599316500127316,0,"rewarded","rewarded","unrewarded",TRUE,0,0.1,0,4,3,3,1,4,1,0,4,4,4,1,9,5,0.25,0,0.444444444444444,0.8,4,4,9,5,0.444444444444444,0.8,0,FALSE,0
"70","ADHD","start_with_long_delay"," test",3,"long",21,3,4,3,0.55,0.65," right",2,0.35,0.45,0.55,0.65,"unrewarded",10,38,1,6,0.5,1,"0DKx3BNQ",0.531923100119457,1,"rewarded","rewarded","rewarded",TRUE,1,0.1,0,4,3,3,1,4,1,0,4,4,4,1,10,5,0.25,0,0.4,0.8,4,4,10,5,0.4,0.8,0,FALSE,0
"71","ADHD","start_with_long_delay"," test",3,"long",22,2,1,2,0.45,0.35," right",2,0.35,0.45,0.55,0.65,"rewarded",11,39,1,6,0.5,1,"0DKx3BNQ",0.987837099935859,0,"unrewarded","rewarded","rewarded",FALSE,1,0.1,1,1,2,2,1,1,1,1,4,4,4,2,10,5,0.25,0.5,0.4,0.8,1,1,2,4,0.5,0.25,1,FALSE,0
"72","ADHD","start_with_long_delay"," test",3,"long",23,3,2,2,0.55,0.45," left",1,0.35,0.45,0.55,0.65,"unrewarded",11,39,1,6,0.5,1,"0DKx3BNQ",0.748156499816105,0,"rewarded","unrewarded","rewarded",TRUE,0,0.1,1,3,2,3,0,3,1,1,4,4,4,2,11,5,0.25,0.5,0.363636363636364,0.8,4,1,11,2,0.363636363636364,0.5,0,FALSE,0
"73","ADHD","start_with_long_delay"," test",3,"long",24,2,1,1,0.45,0.35," left",1,0.35,0.45,0.55,0.65,"rewarded",12,40,1,6,0.5,1,"0DKx3BNQ",0.764264600118622,0,"unrewarded","rewarded","unrewarded",FALSE,1,0.1,1,2,1,2,0,2,1,2,4,4,4,3,11,5,0.25,0.666666666666667,0.363636363636364,0.8,2,1,3,4,0.666666666666667,0.25,1,FALSE,0
"74","ADHD","start_with_long_delay"," test",3,"long",25,2,4,4,0.45,0.65," left",1,0.35,0.45,0.55,0.65,"unrewarded",12,40,1,6,0.5,1,"0DKx3BNQ",0.522158400155604,1,"rewarded","unrewarded","rewarded",TRUE,1,0.2,0,2,4,2,0,2,1,2,4,4,4,4,11,5,0.25,0.5,0.363636363636364,0.8,2,4,4,5,0.5,0.8,0,FALSE,0
"75","ADHD","start_with_long_delay"," test",4,"short",1,4,2,4,0.65,0.45," right",2,0.35,0.45,0.55,0.65,"rewarded",1,41,1,6,0.5,1,"0DKx3BNQ",0.76590449991636,0,"unrewarded","rewarded","unrewarded",TRUE,0,0.2,1,2,4,4,1,2,0,0,0,0,0,0,0,0,0,0,0,0,0,0,0,0,0,0,NA,FALSE,1
"76","ADHD","start_with_long_delay"," test",4,"short",2,4,2,2,0.65,0.45," left",1,0.35,0.45,0.55,0.65,"unrewarded",1,41,1,6,0.5,1,"0DKx3BNQ",0.4269215001259,1,"rewarded","unrewarded","rewarded",TRUE,0,0.2,1,4,2,4,0,4,0,0,0,0,0,0,0,1,0,0,0,0,0,0,1,0,0,0,NA,FALSE,0
"77","ADHD","start_with_long_delay"," test",4,"short",3,1,2,2,0.35,0.45," left",1,0.35,0.45,0.55,0.65,"unrewarded",1,41,1,6,0.5,1,"0DKx3BNQ",0.594400499947369,0,"unrewarded","rewarded","unrewarded",FALSE,1,0.1,0,1,2,1,0,1,0,0,0,0,1,0,0,1,0,0,0,0,0,0,1,0,0,0,NA,FALSE,0
"78","ADHD","start_with_long_delay"," test",4,"short",4,1,4,1,0.35,0.65," right",2,0.35,0.45,0.55,0.65,"unrewarded",1,41,1,6,0.5,1,"0DKx3BNQ",0.57326430012472,1,"unrewarded","unrewarded","rewarded",TRUE,0,0.3,0,4,1,1,1,4,0,0,0,0,2,0,0,1,0,0,0,0,0,0,2,1,0,0,NA,FALSE,0
"79","ADHD","start_with_long_delay"," test",4,"short",5,3,2,2,0.55,0.45," left",1,0.35,0.45,0.55,0.65,"rewarded",2,42,1,6,0.5,1,"0DKx3BNQ",0.797789999982342,0,"unrewarded","unrewarded","unrewarded",FALSE,0,0.1,1,3,2,3,0,3,0,0,1,0,2,0,1,1,0,0,1,0,1,0,1,0,1,0,1,FALSE,0
"80","ADHD","start_with_long_delay"," test",4,"short",6,1,4,1,0.35,0.65," right",2,0.35,0.45,0.55,0.65,"unrewarded",2,42,1,6,0.5,1,"0DKx3BNQ",0.691633299924433,0,"rewarded","unrewarded","unrewarded",FALSE,0,0.3,0,4,1,1,1,4,0,0,1,0,3,0,1,1,0,0,1,0,0,0,3,1,0,0,NA,FALSE,0
"81","ADHD","start_with_long_delay"," test",4,"short",7,2,1,1,0.45,0.35," left",1,0.35,0.45,0.55,0.65,"rewarded",3,43,1,6,0.5,1,"0DKx3BNQ",1.12369720009156,0,"unrewarded","rewarded","unrewarded",TRUE,0,0.1,1,2,1,2,0,2,0,1,1,0,3,1,1,1,0,1,1,0,1,0,1,3,1,0,1,FALSE,0
"82","ADHD","start_with_long_delay"," test",4,"short",8,3,1,1,0.55,0.35," left",1,0.35,0.45,0.55,0.65,"unrewarded",3,43,1,6,0.5,1,"0DKx3BNQ",1.3804083999712,0,"rewarded","unrewarded","rewarded",FALSE,1,0.2,1,3,1,3,0,3,0,1,1,0,3,1,2,1,0,1,0.5,0,1,0,2,3,0.5,0,1,FALSE,0
"83","ADHD","start_with_long_delay"," test",4,"short",9,2,1,2,0.45,0.35," right",2,0.35,0.45,0.55,0.65,"unrewarded",3,43,1,6,0.5,1,"0DKx3BNQ",0.790490900166333,0,"unrewarded","rewarded","unrewarded",FALSE,0,0.1,1,1,2,2,1,1,0,1,1,0,3,2,2,1,0,0.5,0.5,0,1,0,2,3,0.5,0,1,FALSE,0
"84","ADHD","start_with_long_delay"," test",4,"short",10,3,2,3,0.55,0.45," right",2,0.35,0.45,0.55,0.65,"rewarded",4,44,1,6,0.5,1,"0DKx3BNQ",0.867481000022963,0,"unrewarded","unrewarded","rewarded",TRUE,1,0.1,1,2,3,3,1,2,0,1,2,0,3,2,3,1,0,0.5,0.666666666666667,0,2,1,3,2,0.666666666666667,0.5,1,FALSE,0
"85","ADHD","start_with_long_delay"," test",4,"short",11,3,2,3,0.55,0.45," right",2,0.35,0.45,0.55,0.65,"rewarded",5,45,1,6,0.5,1,"0DKx3BNQ",0.389940000139177,1,"rewarded","unrewarded","unrewarded",TRUE,1,0.1,1,2,3,3,1,2,0,1,3,0,3,2,4,1,0,0.5,0.75,0,3,1,4,2,0.75,0.5,1,FALSE,0
"86","ADHD","start_with_long_delay"," test",4,"short",12,3,4,3,0.55,0.65," right",2,0.35,0.45,0.55,0.65,"rewarded",6,46,1,6,0.5,1,"0DKx3BNQ",0.365835099946707,1,"rewarded","rewarded","unrewarded",TRUE,1,0.1,0,4,3,3,1,4,0,1,4,0,3,2,5,1,0,0.5,0.8,0,4,0,5,1,0.8,0,1,FALSE,0
"87","ADHD","start_with_long_delay"," test",4,"short",13,1,4,1,0.35,0.65," right",2,0.35,0.45,0.55,0.65,"unrewarded",6,46,1,6,0.5,1,"0DKx3BNQ",1.10824189987034,0,"rewarded","rewarded","rewarded",FALSE,1,0.3,0,4,1,1,1,4,0,1,4,0,4,2,5,1,0,0.5,0.8,0,0,0,4,1,0,0,NA,FALSE,0
"88","ADHD","start_with_long_delay"," test",4,"short",14,2,1,2,0.45,0.35," right",2,0.35,0.45,0.55,0.65,"unrewarded",6,46,1,6,0.5,1,"0DKx3BNQ",1.11679339990951,0,"unrewarded","rewarded","rewarded",TRUE,1,0.1,1,1,2,2,1,1,0,1,4,0,4,3,5,1,0,0.333333333333333,0.8,0,1,0,3,4,0.333333333333333,0,1,FALSE,0
"89","ADHD","start_with_long_delay"," test",4,"short",15,1,4,4,0.35,0.65," left",1,0.35,0.45,0.55,0.65,"unrewarded",6,46,1,6,0.5,1,"0DKx3BNQ",0.896940999897197,0,"unrewarded","unrewarded","rewarded",FALSE,0,0.3,0,1,4,1,0,1,0,1,4,0,5,3,5,1,0,0.333333333333333,0.8,0,0,0,5,1,0,0,NA,FALSE,0
"90","ADHD","start_with_long_delay"," test",4,"short",16,4,1,1,0.65,0.35," left",1,0.35,0.45,0.55,0.65,"rewarded",7,47,1,6,0.5,1,"0DKx3BNQ",0.509467700030655,0,"unrewarded","unrewarded","unrewarded",TRUE,1,0.3,1,4,1,4,0,4,0,1,4,1,5,3,5,2,0,0.333333333333333,0.8,0.5,1,0,2,5,0.5,0,1,FALSE,0
"91","ADHD","start_with_long_delay"," test",4,"short",17,3,1,3,0.55,0.35," right",2,0.35,0.45,0.55,0.65,"unrewarded",7,47,1,6,0.5,1,"0DKx3BNQ",0.823190199909732,0,"rewarded","unrewarded","unrewarded",FALSE,0,0.2,1,1,3,3,1,1,0,1,4,1,5,3,6,2,0,0.333333333333333,0.666666666666667,0.5,4,0,6,5,0.666666666666667,0,1,FALSE,0
"92","ADHD","start_with_long_delay"," test",4,"short",18,4,1,4,0.65,0.35," right",2,0.35,0.45,0.55,0.65,"rewarded",8,48,1,6,0.5,1,"0DKx3BNQ",0.393996000057086,0,"unrewarded","rewarded","unrewarded",FALSE,1,0.3,1,1,4,4,1,1,0,1,4,2,5,3,6,3,0,0.333333333333333,0.666666666666667,0.666666666666667,2,0,3,5,0.666666666666667,0,1,FALSE,0
"93","ADHD","start_with_long_delay"," test",4,"short",19,3,4,3,0.55,0.65," right",2,0.35,0.45,0.55,0.65,"rewarded",9,49,1,6,0.5,1,"0DKx3BNQ",0.579802100080997,0,"rewarded","unrewarded","rewarded",TRUE,1,0.1,0,4,3,3,1,4,0,1,5,2,5,3,7,3,0,0.333333333333333,0.714285714285714,0.666666666666667,5,2,7,3,0.714285714285714,0.666666666666667,1,FALSE,0
"94","ADHD","start_with_long_delay"," test",4,"short",20,4,1,1,0.65,0.35," left",1,0.35,0.45,0.55,0.65,"unrewarded",9,49,1,6,0.5,1,"0DKx3BNQ",0.848944899858907,0,"rewarded","rewarded","unrewarded",FALSE,0,0.3,1,4,1,4,0,4,0,1,5,2,5,3,7,4,0,0.333333333333333,0.714285714285714,0.5,2,0,4,5,0.5,0,1,FALSE,0
"95","ADHD","start_with_long_delay"," test",4,"short",21,3,2,2,0.55,0.45," left",1,0.35,0.45,0.55,0.65,"unrewarded",9,49,1,6,0.5,1,"0DKx3BNQ",0.707770300097764,0,"unrewarded","rewarded","rewarded",FALSE,1,0.1,1,3,2,3,0,3,0,1,5,2,5,3,8,4,0,0.333333333333333,0.625,0.5,5,1,8,3,0.625,0.333333333333333,1,FALSE,0
"96","ADHD","start_with_long_delay"," test",4,"short",22,2,1,1,0.45,0.35," left",1,0.35,0.45,0.55,0.65,"rewarded",10,50,1,6,0.5,1,"0DKx3BNQ",1.34103010012768,0,"unrewarded","unrewarded","rewarded",FALSE,1,0.1,1,2,1,2,0,2,0,2,5,2,5,4,8,4,0,0.5,0.625,0.5,2,0,4,5,0.5,0,1,FALSE,0
"97","ADHD","start_with_long_delay"," test",4,"short",23,3,2,2,0.55,0.45," left",1,0.35,0.45,0.55,0.65,"unrewarded",10,50,1,6,0.5,1,"0DKx3BNQ",0.771793400170282,0,"rewarded","unrewarded","unrewarded",TRUE,1,0.1,1,3,2,3,0,3,0,2,5,2,5,4,9,4,0,0.5,0.555555555555556,0.5,5,2,9,4,0.555555555555556,0.5,1,FALSE,0
"98","ADHD","start_with_long_delay"," test",4,"short",24,3,1,3,0.55,0.35," right",2,0.35,0.45,0.55,0.65,"rewarded",11,51,1,6,0.5,1,"0DKx3BNQ",0.562685400014743,1,"unrewarded","rewarded","unrewarded",TRUE,0,0.2,1,1,3,3,1,1,0,2,6,2,5,4,10,4,0,0.5,0.6,0.5,6,0,10,5,0.6,0,1,FALSE,0
"99","ADHD","start_with_long_delay"," test",4,"short",25,2,4,4,0.45,0.65," left",1,0.35,0.45,0.55,0.65,"unrewarded",11,51,1,6,0.5,1,"0DKx3BNQ",0.559076400008053,0,"rewarded","unrewarded","rewarded",FALSE,0,0.2,0,2,4,2,0,2,0,2,6,2,5,5,10,4,0,0.4,0.6,0.5,2,2,5,4,0.4,0.5,0,FALSE,0
"100","ADHD","start_with_long_delay"," test",5,"long",1,1,3,3,0.35,0.55," left",1,0.35,0.45,0.55,0.65,"rewarded",1,52,1,6,0.5,1,"0DKx3BNQ",0.613544199848548,0,"unrewarded","rewarded","unrewarded",FALSE,1,0.2,0,1,3,1,0,1,0,0,0,0,0,0,0,0,0,0,0,0,0,0,0,0,0,0,NA,FALSE,1
"101","ADHD","start_with_long_delay"," test",5,"long",2,3,2,3,0.55,0.45," right",2,0.35,0.45,0.55,0.65,"unrewarded",1,52,1,6,0.5,1,"0DKx3BNQ",0.633391600102186,0,"rewarded","unrewarded","rewarded",FALSE,0,0.1,1,2,3,3,1,2,0,0,0,0,0,0,1,0,0,0,0,0,0,0,1,0,0,0,NA,FALSE,0
"102","ADHD","start_with_long_delay"," test",5,"long",3,2,3,2,0.45,0.55," right",2,0.35,0.45,0.55,0.65,"unrewarded",1,52,1,6,0.5,1,"0DKx3BNQ",0.584884300129488,0,"unrewarded","rewarded","unrewarded",TRUE,1,0.1,0,3,2,2,1,3,0,0,0,0,0,1,1,0,0,0,0,0,0,0,1,1,0,0,NA,FALSE,0
"103","ADHD","start_with_long_delay"," test",5,"long",4,1,4,4,0.35,0.65," left",1,0.35,0.45,0.55,0.65,"unrewarded",1,52,1,6,0.5,1,"0DKx3BNQ",0.617937200004235,0,"unrewarded","unrewarded","rewarded",FALSE,0,0.3,0,1,4,1,0,1,0,0,0,0,1,1,1,0,0,0,0,0,0,0,1,0,0,0,NA,FALSE,0
"104","ADHD","start_with_long_delay"," test",5,"long",5,2,3,2,0.45,0.55," right",2,0.35,0.45,0.55,0.65,"unrewarded",1,52,1,6,0.5,1,"0DKx3BNQ",0.875123600009829,0,"unrewarded","unrewarded","unrewarded",FALSE,0,0.1,0,3,2,2,1,3,0,0,0,0,1,2,1,0,0,0,0,0,0,0,2,1,0,0,NA,FALSE,0
"105","ADHD","start_with_long_delay"," test",5,"long",6,2,3,2,0.45,0.55," right",2,0.35,0.45,0.55,0.65,"rewarded",2,53,1,6,0.5,1,"0DKx3BNQ",0.679513799957931,1,"unrewarded","unrewarded","unrewarded",TRUE,1,0.1,0,3,2,2,1,3,0,1,0,0,1,3,1,0,0,0.333333333333333,0,0,1,0,3,1,0.333333333333333,0,1,FALSE,0
"106","ADHD","start_with_long_delay"," test",5,"long",7,2,3,2,0.45,0.55," right",2,0.35,0.45,0.55,0.65,"rewarded",3,54,1,6,0.5,1,"0DKx3BNQ",0.61366800009273,1,"rewarded","unrewarded","unrewarded",TRUE,1,0.1,0,3,2,2,1,3,0,2,0,0,1,4,1,0,0,0.5,0,0,2,0,4,1,0.5,0,1,FALSE,0
"107","ADHD","start_with_long_delay"," test",5,"long",8,4,2,4,0.65,0.45," right",2,0.35,0.45,0.55,0.65,"rewarded",4,55,1,6,0.5,1,"0DKx3BNQ",0.34556689998135,0,"rewarded","rewarded","unrewarded",TRUE,1,0.2,1,2,4,4,1,2,0,2,0,1,1,4,1,1,0,0.5,0,1,1,2,1,4,1,0.5,1,FALSE,0
"108","ADHD","start_with_long_delay"," test",5,"long",9,4,3,4,0.65,0.55," right",2,0.35,0.45,0.55,0.65,"unrewarded",4,55,1,6,0.5,1,"0DKx3BNQ",0.316820600070059,1,"rewarded","rewarded","rewarded",TRUE,1,0.1,1,3,4,4,1,3,0,2,0,1,1,4,1,2,0,0.5,0,0.5,1,0,2,1,0.5,0,1,FALSE,0
"109","ADHD","start_with_long_delay"," test",5,"long",10,2,3,3,0.45,0.55," left",1,0.35,0.45,0.55,0.65,"unrewarded",4,55,1,6,0.5,1,"0DKx3BNQ",0.884629900101572,0,"unrewarded","rewarded","rewarded",FALSE,0,0.1,0,2,3,2,0,2,0,2,0,1,1,5,1,2,0,0.4,0,0.5,2,0,5,1,0.4,0,1,FALSE,0
"110","ADHD","start_with_long_delay"," test",5,"long",11,4,1,1,0.65,0.35," left",1,0.35,0.45,0.55,0.65,"unrewarded",4,55,1,6,0.5,1,"0DKx3BNQ",0.432752700056881,0,"unrewarded","unrewarded","rewarded",FALSE,1,0.3,1,4,1,4,0,4,0,2,0,1,1,5,1,3,0,0.4,0,0.333333333333333,1,0,3,1,0.333333333333333,0,1,FALSE,0
"111","ADHD","start_with_long_delay"," test",5,"long",12,4,2,4,0.65,0.45," right",2,0.35,0.45,0.55,0.65,"rewarded",5,56,1,6,0.5,1,"0DKx3BNQ",0.308089100057259,1,"unrewarded","unrewarded","unrewarded",TRUE,0,0.2,1,2,4,4,1,2,0,2,0,2,1,5,1,4,0,0.4,0,0.5,2,2,4,5,0.5,0.4,1,FALSE,0
"112","ADHD","start_with_long_delay"," test",5,"long",13,4,3,4,0.65,0.55," right",2,0.35,0.45,0.55,0.65,"unrewarded",5,56,1,6,0.5,1,"0DKx3BNQ",0.289400100009516,1,"rewarded","unrewarded","unrewarded",TRUE,1,0.1,1,3,4,4,1,3,0,2,0,2,1,5,1,5,0,0.4,0,0.4,2,0,5,1,0.4,0,1,FALSE,0
"113","ADHD","start_with_long_delay"," test",5,"long",14,2,3,2,0.45,0.55," right",2,0.35,0.45,0.55,0.65,"unrewarded",5,56,1,6,0.5,1,"0DKx3BNQ",0.581808000104502,0,"unrewarded","rewarded","unrewarded",FALSE,1,0.1,0,3,2,2,1,3,0,2,0,2,1,6,1,5,0,0.333333333333333,0,0.4,2,0,6,1,0.333333333333333,0,1,FALSE,0
"114","ADHD","start_with_long_delay"," test",5,"long",15,4,2,4,0.65,0.45," right",2,0.35,0.45,0.55,0.65,"rewarded",6,57,1,6,0.5,1,"0DKx3BNQ",0.364792099921033,0,"unrewarded","unrewarded","rewarded",TRUE,1,0.2,1,2,4,4,1,2,0,2,0,3,1,6,1,6,0,0.333333333333333,0,0.5,3,2,6,6,0.5,0.333333333333333,1,FALSE,0
"115","ADHD","start_with_long_delay"," test",5,"long",16,2,3,3,0.45,0.55," left",1,0.35,0.45,0.55,0.65,"rewarded",7,58,1,6,0.5,1,"0DKx3BNQ",0.597205400001258,0,"rewarded","unrewarded","unrewarded",FALSE,0,0.1,0,2,3,2,0,2,0,3,0,3,1,7,1,6,0,0.428571428571429,0,0.5,3,0,7,1,0.428571428571429,0,1,FALSE,0
"116","ADHD","start_with_long_delay"," test",5,"long",17,4,3,3,0.65,0.55," left",1,0.35,0.45,0.55,0.65,"rewarded",8,59,1,6,0.5,1,"0DKx3BNQ",0.322272599907592,0,"rewarded","rewarded","unrewarded",FALSE,1,0.1,1,4,3,4,0,4,0,3,0,4,1,7,1,7,0,0.428571428571429,0,0.571428571428571,4,0,7,1,0.571428571428571,0,1,FALSE,0
"117","ADHD","start_with_long_delay"," test",5,"long",18,4,2,4,0.65,0.45," right",2,0.35,0.45,0.55,0.65,"rewarded",9,60,1,6,0.5,1,"0DKx3BNQ",0.331260500010103,1,"rewarded","rewarded","rewarded",TRUE,0,0.2,1,2,4,4,1,2,0,3,0,5,1,7,1,8,0,0.428571428571429,0,0.625,5,3,8,7,0.625,0.428571428571429,1,FALSE,0
"118","ADHD","start_with_long_delay"," test",5,"long",19,4,2,4,0.65,0.45," right",2,0.35,0.45,0.55,0.65,"rewarded",10,61,1,6,0.5,1,"0DKx3BNQ",0.321830099914223,1,"rewarded","rewarded","rewarded",TRUE,1,0.2,1,2,4,4,1,2,0,3,0,6,1,7,1,9,0,0.428571428571429,0,0.666666666666667,6,3,9,7,0.666666666666667,0.428571428571429,1,FALSE,0
"119","ADHD","start_with_long_delay"," test",5,"long",20,1,3,3,0.35,0.55," left",1,0.35,0.45,0.55,0.65,"unrewarded",10,61,1,6,0.5,1,"0DKx3BNQ",0.34965609991923,0,"rewarded","rewarded","rewarded",FALSE,0,0.2,0,1,3,1,0,1,0,3,0,6,2,7,1,9,0,0.428571428571429,0,0.666666666666667,0,0,2,1,0,0,NA,FALSE,0
"120","ADHD","start_with_long_delay"," test",5,"long",21,1,3,1,0.35,0.55," right",2,0.35,0.45,0.55,0.65,"unrewarded",10,61,1,6,0.5,1,"0DKx3BNQ",0.664365499978885,1,"unrewarded","rewarded","rewarded",TRUE,0,0.2,0,3,1,1,1,3,0,3,0,6,3,7,1,9,0,0.428571428571429,0,0.666666666666667,0,0,3,1,0,0,NA,FALSE,0
"121","ADHD","start_with_long_delay"," test",5,"long",22,1,3,3,0.35,0.55," left",1,0.35,0.45,0.55,0.65,"unrewarded",10,61,1,6,0.5,1,"0DKx3BNQ",0.542748699896038,1,"unrewarded","unrewarded","rewarded",TRUE,0,0.2,0,1,3,1,0,1,0,3,0,6,4,7,1,9,0,0.428571428571429,0,0.666666666666667,0,0,4,1,0,0,NA,FALSE,0
"122","ADHD","start_with_long_delay"," test",5,"long",23,1,3,1,0.35,0.55," right",2,0.35,0.45,0.55,0.65,"rewarded",11,62,1,6,0.5,1,"0DKx3BNQ",0.458136900095269,1,"unrewarded","unrewarded","unrewarded",TRUE,0,0.2,0,3,1,1,1,3,1,3,0,6,5,7,1,9,0.2,0.428571428571429,0,0.666666666666667,1,0,5,1,0.2,0,1,FALSE,0
"123","ADHD","start_with_long_delay"," test",5,"long",24,4,2,4,0.65,0.45," right",2,0.35,0.45,0.55,0.65,"unrewarded",11,62,1,6,0.5,1,"0DKx3BNQ",0.31315160007216,0,"rewarded","unrewarded","unrewarded",FALSE,1,0.2,1,2,4,4,1,2,1,3,0,6,5,7,1,10,0.2,0.428571428571429,0,0.6,6,3,10,7,0.6,0.428571428571429,1,FALSE,0
"124","ADHD","start_with_long_delay"," test",5,"long",25,4,2,2,0.65,0.45," left",1,0.35,0.45,0.55,0.65,"rewarded",12,63,1,6,0.5,1,"0DKx3BNQ",0.336070399964228,1,"unrewarded","rewarded","unrewarded",TRUE,0,0.2,1,4,2,4,0,4,1,3,0,7,5,7,1,11,0.2,0.428571428571429,0,0.636363636363636,7,3,11,7,0.636363636363636,0.428571428571429,1,FALSE,0
"125","ADHD","start_with_long_delay"," test",6,"short",1,3,1,3,0.55,0.35," right",2,0.35,0.45,0.55,0.65,"rewarded",1,64,1,6,0.5,1,"0DKx3BNQ",0.80969740008004,0,"rewarded","unrewarded","rewarded",FALSE,0,0.2,1,1,3,3,1,1,0,0,0,0,0,0,0,0,0,0,0,0,0,0,0,0,0,0,NA,FALSE,1
"126","ADHD","start_with_long_delay"," test",6,"short",2,3,2,3,0.55,0.45," right",2,0.35,0.45,0.55,0.65,"unrewarded",1,64,1,6,0.5,1,"0DKx3BNQ",0.366792300017551,1,"rewarded","rewarded","unrewarded",TRUE,1,0.1,1,2,3,3,1,2,0,0,0,0,0,0,1,0,0,0,0,0,0,0,1,0,0,0,NA,FALSE,0
"127","ADHD","start_with_long_delay"," test",6,"short",3,3,4,4,0.55,0.65," left",1,0.35,0.45,0.55,0.65,"rewarded",2,65,1,6,0.5,1,"0DKx3BNQ",0.404460499994457,1,"unrewarded","rewarded","rewarded",TRUE,0,0.1,0,3,4,3,0,3,0,0,1,0,0,0,2,0,0,0,0.5,0,1,0,2,0,0.5,0,1,FALSE,0
"128","ADHD","start_with_long_delay"," test",6,"short",4,3,4,4,0.55,0.65," left",1,0.35,0.45,0.55,0.65,"rewarded",3,66,1,6,0.5,1,"0DKx3BNQ",0.669746000086889,1,"rewarded","unrewarded","rewarded",TRUE,1,0.1,0,3,4,3,0,3,0,0,2,0,0,0,3,0,0,0,0.666666666666667,0,2,0,3,0,0.666666666666667,0,1,FALSE,0
"129","ADHD","start_with_long_delay"," test",6,"short",5,2,1,1,0.45,0.35," left",1,0.35,0.45,0.55,0.65,"unrewarded",3,66,1,6,0.5,1,"0DKx3BNQ",0.526851100148633,0,"rewarded","rewarded","unrewarded",FALSE,1,0.1,1,2,1,2,0,2,0,0,2,0,0,1,3,0,0,0,0.666666666666667,0,0,0,1,0,0,0,NA,FALSE,0
"130","ADHD","start_with_long_delay"," test",6,"short",6,2,1,2,0.45,0.35," right",2,0.35,0.45,0.55,0.65,"rewarded",4,67,1,6,0.5,1,"0DKx3BNQ",0.304165799869224,1,"unrewarded","rewarded","rewarded",TRUE,0,0.1,1,1,2,2,1,1,0,1,2,0,0,2,3,0,0,0.5,0.666666666666667,0,1,0,2,0,0.5,0,1,FALSE,0
"131","ADHD","start_with_long_delay"," test",6,"short",7,2,1,1,0.45,0.35," left",1,0.35,0.45,0.55,0.65,"rewarded",5,68,1,6,0.5,1,"0DKx3BNQ",0.380490300012752,1,"rewarded","unrewarded","rewarded",TRUE,0,0.1,1,2,1,2,0,2,0,2,2,0,0,3,3,0,0,0.666666666666667,0.666666666666667,0,2,0,3,0,0.666666666666667,0,1,FALSE,0
"132","ADHD","start_with_long_delay"," test",6,"short",8,1,4,1,0.35,0.65," right",2,0.35,0.45,0.55,0.65,"unrewarded",5,68,1,6,0.5,1,"0DKx3BNQ",0.890225900104269,0,"rewarded","rewarded","unrewarded",FALSE,0,0.3,0,4,1,1,1,4,0,2,2,0,1,3,3,0,0,0.666666666666667,0.666666666666667,0,0,0,1,0,0,0,NA,FALSE,0
"133","ADHD","start_with_long_delay"," test",6,"short",9,3,4,3,0.55,0.65," right",2,0.35,0.45,0.55,0.65,"unrewarded",5,68,1,6,0.5,1,"0DKx3BNQ",0.675088299904019,0,"unrewarded","rewarded","rewarded",FALSE,1,0.1,0,4,3,3,1,4,0,2,2,0,1,3,4,0,0,0.666666666666667,0.5,0,2,0,4,0,0.5,0,1,FALSE,0
"134","ADHD","start_with_long_delay"," test",6,"short",10,3,4,3,0.55,0.65," right",2,0.35,0.45,0.55,0.65,"rewarded",6,69,1,6,0.5,1,"0DKx3BNQ",0.415911300107837,1,"unrewarded","unrewarded","rewarded",TRUE,1,0.1,0,4,3,3,1,4,0,2,3,0,1,3,5,0,0,0.666666666666667,0.6,0,3,0,5,0,0.6,0,1,FALSE,0
"135","ADHD","start_with_long_delay"," test",6,"short",11,1,4,1,0.35,0.65," right",2,0.35,0.45,0.55,0.65,"unrewarded",6,69,1,6,0.5,1,"0DKx3BNQ",1.17676570010372,0,"rewarded","unrewarded","unrewarded",FALSE,1,0.3,0,4,1,1,1,4,0,2,3,0,2,3,5,0,0,0.666666666666667,0.6,0,0,0,2,0,0,0,NA,FALSE,0
"136","ADHD","start_with_long_delay"," test",6,"short",12,1,2,2,0.35,0.45," left",1,0.35,0.45,0.55,0.65,"unrewarded",6,69,1,6,0.5,1,"0DKx3BNQ",0.367236000020057,1,"unrewarded","rewarded","unrewarded",TRUE,0,0.1,0,1,2,1,0,1,0,2,3,0,3,3,5,0,0,0.666666666666667,0.6,0,0,2,3,3,0,0.666666666666667,0,FALSE,0
"137","ADHD","start_with_long_delay"," test",6,"short",13,3,1,1,0.55,0.35," left",1,0.35,0.45,0.55,0.65,"rewarded",7,70,1,6,0.5,1,"0DKx3BNQ",0.680021400097758,0,"unrewarded","unrewarded","rewarded",TRUE,1,0.2,1,3,1,3,0,3,0,2,4,0,3,3,6,0,0,0.666666666666667,0.666666666666667,0,4,0,6,3,0.666666666666667,0,1,FALSE,0
"138","ADHD","start_with_long_delay"," test",6,"short",14,1,4,4,0.35,0.65," left",1,0.35,0.45,0.55,0.65,"unrewarded",7,70,1,6,0.5,1,"0DKx3BNQ",1.2286300000269,0,"rewarded","unrewarded","unrewarded",FALSE,1,0.3,0,1,4,1,0,1,0,2,4,0,4,3,6,0,0,0.666666666666667,0.666666666666667,0,0,0,4,0,0,0,NA,FALSE,0
"139","ADHD","start_with_long_delay"," test",6,"short",15,2,3,3,0.45,0.55," left",1,0.35,0.45,0.55,0.65,"unrewarded",7,70,1,6,0.5,1,"0DKx3BNQ",0.541883100057021,0,"unrewarded","rewarded","unrewarded",FALSE,1,0.1,0,2,3,2,0,2,0,2,4,0,4,4,6,0,0,0.5,0.666666666666667,0,2,4,4,6,0.5,0.666666666666667,0,FALSE,0
"140","ADHD","start_with_long_delay"," test",6,"short",16,2,1,2,0.45,0.35," right",2,0.35,0.45,0.55,0.65,"rewarded",8,71,1,6,0.5,1,"0DKx3BNQ",0.259911400033161,1,"unrewarded","unrewarded","rewarded",TRUE,0,0.1,1,1,2,2,1,1,0,3,4,0,4,5,6,0,0,0.6,0.666666666666667,0,3,0,5,4,0.6,0,1,FALSE,0
"141","ADHD","start_with_long_delay"," test",6,"short",17,3,4,4,0.55,0.65," left",1,0.35,0.45,0.55,0.65,"rewarded",9,72,1,6,0.5,1,"0DKx3BNQ",0.547382300021127,0,"rewarded","unrewarded","unrewarded",FALSE,0,0.1,0,3,4,3,0,3,0,3,5,0,4,5,7,0,0,0.6,0.714285714285714,0,5,0,7,0,0.714285714285714,0,1,FALSE,0
"142","ADHD","start_with_long_delay"," test",6,"short",18,3,1,3,0.55,0.35," right",2,0.35,0.45,0.55,0.65,"rewarded",10,73,1,6,0.5,1,"0DKx3BNQ",1.14576699980535,1,"rewarded","rewarded","unrewarded",TRUE,0,0.2,1,1,3,3,1,1,0,3,6,0,4,5,8,0,0,0.6,0.75,0,6,0,8,4,0.75,0,1,FALSE,0
"143","ADHD","start_with_long_delay"," test",6,"short",19,2,3,3,0.45,0.55," left",1,0.35,0.45,0.55,0.65,"rewarded",11,74,1,6,0.5,1,"0DKx3BNQ",0.296355200000107,0,"rewarded","rewarded","rewarded",TRUE,0,0.1,0,2,3,2,0,2,0,4,6,0,4,6,8,0,0,0.666666666666667,0.75,0,4,6,6,8,0.666666666666667,0.75,0,FALSE,0
"144","ADHD","start_with_long_delay"," test",6,"short",20,3,4,4,0.55,0.65," left",1,0.35,0.45,0.55,0.65,"unrewarded",11,74,1,6,0.5,1,"0DKx3BNQ",0.613119299989194,0,"rewarded","rewarded","rewarded",FALSE,1,0.1,0,3,4,3,0,3,0,4,6,0,4,6,9,0,0,0.666666666666667,0.666666666666667,0,6,0,9,0,0.666666666666667,0,1,FALSE,0
"145","ADHD","start_with_long_delay"," test",6,"short",21,2,3,2,0.45,0.55," right",2,0.35,0.45,0.55,0.65,"unrewarded",11,74,1,6,0.5,1,"0DKx3BNQ",0.262120899977162,0,"unrewarded","rewarded","rewarded",TRUE,0,0.1,0,3,2,2,1,3,0,4,6,0,4,7,9,0,0,0.571428571428571,0.666666666666667,0,4,6,7,9,0.571428571428571,0.666666666666667,0,FALSE,0
"146","ADHD","start_with_long_delay"," test",6,"short",22,2,3,3,0.45,0.55," left",1,0.35,0.45,0.55,0.65,"rewarded",12,75,1,6,0.5,1,"0DKx3BNQ",0.277003000024706,1,"unrewarded","unrewarded","rewarded",TRUE,0,0.1,0,2,3,2,0,2,0,5,6,0,4,8,9,0,0,0.625,0.666666666666667,0,5,6,8,9,0.625,0.666666666666667,0,FALSE,0
"147","ADHD","start_with_long_delay"," test",6,"short",23,3,4,3,0.55,0.65," right",2,0.35,0.45,0.55,0.65,"rewarded",13,76,1,6,0.5,1,"0DKx3BNQ",0.498245200142264,0,"rewarded","unrewarded","unrewarded",FALSE,0,0.1,0,4,3,3,1,4,0,5,7,0,4,8,10,0,0,0.625,0.7,0,7,0,10,0,0.7,0,1,FALSE,0
"148","ADHD","start_with_long_delay"," test",6,"short",24,2,3,2,0.45,0.55," right",2,0.35,0.45,0.55,0.65,"rewarded",14,77,1,6,0.5,1,"0DKx3BNQ",0.298933999845758,0,"rewarded","rewarded","unrewarded",TRUE,1,0.1,0,3,2,2,1,3,0,6,7,0,4,9,10,0,0,0.666666666666667,0.7,0,6,7,9,10,0.666666666666667,0.7,0,FALSE,0
"149","ADHD","start_with_long_delay"," test",6,"short",25,3,4,4,0.55,0.65," left",1,0.35,0.45,0.55,0.65,"rewarded",15,78,1,6,0.5,1,"0DKx3BNQ",0.547757599968463,0,"rewarded","rewarded","rewarded",FALSE,0,0.1,0,3,4,3,0,3,0,6,8,0,4,9,11,0,0,0.666666666666667,0.727272727272727,0,8,0,11,0,0.727272727272727,0,1,FALSE,0
"150","ADHD","start_with_long_delay"," test",7,"long",1,3,1,3,0.55,0.35," right",2,0.35,0.45,0.55,0.65,"unrewarded",0,78,1,6,0.5,1,"0DKx3BNQ",0.457407600013539,1,"rewarded","rewarded","rewarded",TRUE,0,0.2,1,1,3,3,1,1,0,0,0,0,0,0,0,0,0,0,0,0,0,0,0,0,0,0,NA,FALSE,1
"151","ADHD","start_with_long_delay"," test",7,"long",2,3,4,3,0.55,0.65," right",2,0.35,0.45,0.55,0.65,"rewarded",1,79,1,6,0.5,1,"0DKx3BNQ",0.621150800026953,1,"unrewarded","rewarded","rewarded",TRUE,1,0.1,0,4,3,3,1,4,0,0,1,0,0,0,1,0,0,0,1,0,1,0,1,0,1,0,1,FALSE,0
"152","ADHD","start_with_long_delay"," test",7,"long",3,2,4,4,0.45,0.65," left",1,0.35,0.45,0.55,0.65,"unrewarded",1,79,1,6,0.5,1,"0DKx3BNQ",0.780141499824822,0,"rewarded","unrewarded","rewarded",FALSE,0,0.2,0,2,4,2,0,2,0,0,1,0,0,1,1,0,0,0,1,0,0,0,1,0,0,0,NA,FALSE,0
"153","ADHD","start_with_long_delay"," test",7,"long",4,2,3,3,0.45,0.55," left",1,0.35,0.45,0.55,0.65,"unrewarded",1,79,1,6,0.5,1,"0DKx3BNQ",0.48888189997524,1,"unrewarded","rewarded","unrewarded",TRUE,1,0.1,0,2,3,2,0,2,0,0,1,0,0,2,1,0,0,0,1,0,0,1,2,1,0,1,0,FALSE,0
"154","ADHD","start_with_long_delay"," test",7,"long",5,3,1,3,0.55,0.35," right",2,0.35,0.45,0.55,0.65,"rewarded",2,80,1,6,0.5,1,"0DKx3BNQ",0.46639890014194,0,"unrewarded","unrewarded","rewarded",FALSE,0,0.2,1,1,3,3,1,1,0,0,2,0,0,2,2,0,0,0,1,0,2,0,2,0,1,0,1,FALSE,0
"155","ADHD","start_with_long_delay"," test",7,"long",6,2,1,2,0.45,0.35," right",2,0.35,0.45,0.55,0.65,"unrewarded",2,80,1,6,0.5,1,"0DKx3BNQ",0.729315800126642,0,"rewarded","unrewarded","unrewarded",FALSE,1,0.1,1,1,2,2,1,1,0,0,2,0,0,3,2,0,0,0,1,0,0,0,3,0,0,0,NA,FALSE,0
"156","ADHD","start_with_long_delay"," test",7,"long",7,3,4,4,0.55,0.65," left",1,0.35,0.45,0.55,0.65,"rewarded",3,81,1,6,0.5,1,"0DKx3BNQ",0.464681699872017,0,"unrewarded","rewarded","unrewarded",FALSE,0,0.1,0,3,4,3,0,3,0,0,3,0,0,3,3,0,0,0,1,0,3,0,3,0,1,0,1,FALSE,0
"157","ADHD","start_with_long_delay"," test",7,"long",8,3,1,1,0.55,0.35," left",1,0.35,0.45,0.55,0.65,"unrewarded",3,81,1,6,0.5,1,"0DKx3BNQ",0.46249289996922,1,"rewarded","unrewarded","rewarded",TRUE,1,0.2,1,3,1,3,0,3,0,0,3,0,0,3,4,0,0,0,0.75,0,3,0,4,0,0.75,0,1,FALSE,0
"158","ADHD","start_with_long_delay"," test",7,"long",9,3,1,3,0.55,0.35," right",2,0.35,0.45,0.55,0.65,"unrewarded",3,81,1,6,0.5,1,"0DKx3BNQ",0.587608400033787,1,"unrewarded","rewarded","unrewarded",TRUE,0,0.2,1,1,3,3,1,1,0,0,3,0,0,3,5,0,0,0,0.6,0,3,0,5,0,0.6,0,1,FALSE,0
"159","ADHD","start_with_long_delay"," test",7,"long",10,3,2,3,0.55,0.45," right",2,0.35,0.45,0.55,0.65,"rewarded",4,82,1,6,0.5,1,"0DKx3BNQ",0.318326399894431,1,"unrewarded","unrewarded","rewarded",TRUE,1,0.1,1,2,3,3,1,2,0,0,4,0,0,3,6,0,0,0,0.666666666666667,0,4,0,6,3,0.666666666666667,0,1,FALSE,0
"160","ADHD","start_with_long_delay"," test",7,"long",11,3,4,4,0.55,0.65," left",1,0.35,0.45,0.55,0.65,"rewarded",5,83,1,6,0.5,1,"0DKx3BNQ",0.301527000032365,1,"rewarded","unrewarded","unrewarded",TRUE,0,0.1,0,3,4,3,0,3,0,0,5,0,0,3,7,0,0,0,0.714285714285714,0,5,0,7,0,0.714285714285714,0,1,FALSE,0
"161","ADHD","start_with_long_delay"," test",7,"long",12,3,2,3,0.55,0.45," right",2,0.35,0.45,0.55,0.65,"unrewarded",5,83,1,6,0.5,1,"0DKx3BNQ",0.297977700131014,1,"rewarded","rewarded","unrewarded",TRUE,0,0.1,1,2,3,3,1,2,0,0,5,0,0,3,8,0,0,0,0.625,0,5,0,8,3,0.625,0,1,FALSE,0
"162","ADHD","start_with_long_delay"," test",7,"long",13,3,1,3,0.55,0.35," right",2,0.35,0.45,0.55,0.65,"unrewarded",5,83,1,6,0.5,1,"0DKx3BNQ",0.243726700078696,1,"unrewarded","rewarded","rewarded",TRUE,1,0.2,1,1,3,3,1,1,0,0,5,0,0,3,9,0,0,0,0.555555555555556,0,5,0,9,0,0.555555555555556,0,1,FALSE,0
"163","ADHD","start_with_long_delay"," test",7,"long",14,3,2,2,0.55,0.45," left",1,0.35,0.45,0.55,0.65,"rewarded",6,84,1,6,0.5,1,"0DKx3BNQ",0.298129299888387,1,"unrewarded","unrewarded","rewarded",TRUE,0,0.1,1,3,2,3,0,3,0,0,6,0,0,3,10,0,0,0,0.6,0,6,0,10,3,0.6,0,1,FALSE,0
"164","ADHD","start_with_long_delay"," test",7,"long",15,4,2,2,0.65,0.45," left",1,0.35,0.45,0.55,0.65,"unrewarded",6,84,1,6,0.5,1,"0DKx3BNQ",0.915030899923295,0,"rewarded","unrewarded","unrewarded",FALSE,1,0.2,1,4,2,4,0,4,0,0,6,0,0,3,10,1,0,0,0.6,0,0,0,1,3,0,0,NA,FALSE,0
"165","ADHD","start_with_long_delay"," test",7,"long",16,4,2,4,0.65,0.45," right",2,0.35,0.45,0.55,0.65,"rewarded",7,85,1,6,0.5,1,"0DKx3BNQ",0.830885700182989,1,"unrewarded","rewarded","unrewarded",TRUE,0,0.2,1,2,4,4,1,2,0,0,6,1,0,3,10,2,0,0,0.6,0.5,1,0,2,3,0.5,0,1,FALSE,0
"166","ADHD","start_with_long_delay"," test",7,"long",17,3,2,2,0.55,0.45," left",1,0.35,0.45,0.55,0.65,"rewarded",8,86,1,6,0.5,1,"0DKx3BNQ",0.553105700062588,0,"rewarded","unrewarded","rewarded",FALSE,0,0.1,1,3,2,3,0,3,0,0,7,1,0,3,11,2,0,0,0.636363636363636,0.5,7,0,11,3,0.636363636363636,0,1,FALSE,0
"167","ADHD","start_with_long_delay"," test",7,"long",18,1,2,1,0.35,0.45," right",2,0.35,0.45,0.55,0.65,"rewarded",9,87,1,6,0.5,1,"0DKx3BNQ",0.847950299968943,0,"rewarded","rewarded","unrewarded",FALSE,0,0.1,0,2,1,1,1,2,1,0,7,1,1,3,11,2,1,0,0.636363636363636,0.5,1,0,1,3,1,0,1,FALSE,0
"168","ADHD","start_with_long_delay"," test",7,"long",19,3,4,3,0.55,0.65," right",2,0.35,0.45,0.55,0.65,"unrewarded",9,87,1,6,0.5,1,"0DKx3BNQ",0.259645800106227,0,"rewarded","rewarded","rewarded",FALSE,1,0.1,0,4,3,3,1,4,1,0,7,1,1,3,12,2,1,0,0.583333333333333,0.5,7,1,12,2,0.583333333333333,0.5,1,FALSE,0
"169","ADHD","start_with_long_delay"," test",7,"long",20,3,4,3,0.55,0.65," right",2,0.35,0.45,0.55,0.65,"rewarded",10,88,1,6,0.5,1,"0DKx3BNQ",0.293255199911073,1,"unrewarded","rewarded","rewarded",TRUE,1,0.1,0,4,3,3,1,4,1,0,8,1,1,3,13,2,1,0,0.615384615384615,0.5,8,1,13,2,0.615384615384615,0.5,1,FALSE,0
"170","ADHD","start_with_long_delay"," test",7,"long",21,3,2,2,0.55,0.45," left",1,0.35,0.45,0.55,0.65,"unrewarded",10,88,1,6,0.5,1,"0DKx3BNQ",0.6202481999062,1,"rewarded","unrewarded","rewarded",TRUE,0,0.1,1,3,2,3,0,3,1,0,8,1,1,3,14,2,1,0,0.571428571428571,0.5,8,0,14,3,0.571428571428571,0,1,FALSE,0
"171","ADHD","start_with_long_delay"," test",7,"long",22,3,4,3,0.55,0.65," right",2,0.35,0.45,0.55,0.65,"unrewarded",10,88,1,6,0.5,1,"0DKx3BNQ",0.266845899866894,1,"unrewarded","rewarded","unrewarded",TRUE,0,0.1,0,4,3,3,1,4,1,0,8,1,1,3,15,2,1,0,0.533333333333333,0.5,8,1,15,2,0.533333333333333,0.5,1,FALSE,0
"172","ADHD","start_with_long_delay"," test",7,"long",23,2,4,4,0.45,0.65," left",1,0.35,0.45,0.55,0.65,"unrewarded",10,88,1,6,0.5,1,"0DKx3BNQ",0.618199900025502,0,"unrewarded","unrewarded","rewarded",FALSE,0,0.2,0,2,4,2,0,2,1,0,8,1,1,4,15,2,1,0,0.533333333333333,0.5,0,1,4,2,0,0.5,0,FALSE,0
"173","ADHD","start_with_long_delay"," test",7,"long",24,3,1,3,0.55,0.35," right",2,0.35,0.45,0.55,0.65,"unrewarded",10,88,1,6,0.5,1,"0DKx3BNQ",0.44169280002825,0,"unrewarded","unrewarded","unrewarded",FALSE,0,0.2,1,1,3,3,1,1,1,0,8,1,1,4,16,2,1,0,0.5,0.5,8,1,16,1,0.5,1,0,FALSE,0
"174","ADHD","start_with_long_delay"," test",7,"long",25,3,2,2,0.55,0.45," left",1,0.35,0.45,0.55,0.65,"rewarded",11,89,1,6,0.5,1,"0DKx3BNQ",0.348650099942461,1,"unrewarded","unrewarded","unrewarded",TRUE,0,0.1,1,3,2,3,0,3,1,0,9,1,1,4,17,2,1,0,0.529411764705882,0.5,9,0,17,4,0.529411764705882,0,1,FALSE,0
"175","ADHD","start_with_long_delay"," test",8,"short",1,3,1,3,0.55,0.35," right",2,0.35,0.45,0.55,0.65,"rewarded",1,90,1,6,0.5,1,"0DKx3BNQ",0.740868099965155,1,"rewarded","unrewarded","unrewarded",TRUE,0,0.2,1,1,3,3,1,1,0,0,0,0,0,0,0,0,0,0,0,0,0,0,0,0,0,0,NA,FALSE,1
"176","ADHD","start_with_long_delay"," test",8,"short",2,3,4,4,0.55,0.65," left",1,0.35,0.45,0.55,0.65,"rewarded",2,91,1,6,0.5,1,"0DKx3BNQ",0.319244399899617,1,"rewarded","rewarded","unrewarded",TRUE,0,0.1,0,3,4,3,0,3,0,0,1,0,0,0,1,0,0,0,1,0,1,0,1,0,1,0,1,FALSE,0
"177","ADHD","start_with_long_delay"," test",8,"short",3,3,1,1,0.55,0.35," left",1,0.35,0.45,0.55,0.65,"unrewarded",2,91,1,6,0.5,1,"0DKx3BNQ",0.428544699912891,1,"rewarded","rewarded","rewarded",TRUE,1,0.2,1,3,1,3,0,3,0,0,1,0,0,0,2,0,0,0,0.5,0,1,0,2,0,0.5,0,1,FALSE,0
"178","ADHD","start_with_long_delay"," test",8,"short",4,3,4,4,0.55,0.65," left",1,0.35,0.45,0.55,0.65,"rewarded",3,92,1,6,0.5,1,"0DKx3BNQ",0.343834399944171,1,"unrewarded","rewarded","rewarded",TRUE,1,0.1,0,3,4,3,0,3,0,0,2,0,0,0,3,0,0,0,0.666666666666667,0,2,0,3,0,0.666666666666667,0,1,FALSE,0
"179","ADHD","start_with_long_delay"," test",8,"short",5,3,1,3,0.55,0.35," right",2,0.35,0.45,0.55,0.65,"rewarded",4,93,1,6,0.5,1,"0DKx3BNQ",0.299353700131178,1,"rewarded","unrewarded","rewarded",TRUE,0,0.2,1,1,3,3,1,1,0,0,3,0,0,0,4,0,0,0,0.75,0,3,0,4,0,0.75,0,1,FALSE,0
"180","ADHD","start_with_long_delay"," test",8,"short",6,3,1,3,0.55,0.35," right",2,0.35,0.45,0.55,0.65,"unrewarded",4,93,1,6,0.5,1,"0DKx3BNQ",0.339449499966577,1,"rewarded","rewarded","unrewarded",TRUE,1,0.2,1,1,3,3,1,1,0,0,3,0,0,0,5,0,0,0,0.6,0,3,0,5,0,0.6,0,1,FALSE,0
"181","ADHD","start_with_long_delay"," test",8,"short",7,1,4,1,0.35,0.65," right",2,0.35,0.45,0.55,0.65,"unrewarded",4,93,1,6,0.5,1,"0DKx3BNQ",0.335946600185707,0,"unrewarded","rewarded","rewarded",FALSE,1,0.3,0,4,1,1,1,4,0,0,3,0,1,0,5,0,0,0,0.6,0,0,0,1,0,0,0,NA,FALSE,0
"182","ADHD","start_with_long_delay"," test",8,"short",8,3,4,4,0.55,0.65," left",1,0.35,0.45,0.55,0.65,"rewarded",5,94,1,6,0.5,1,"0DKx3BNQ",0.325840099947527,0,"unrewarded","unrewarded","rewarded",FALSE,0,0.1,0,3,4,3,0,3,0,0,4,0,1,0,6,0,0,0,0.666666666666667,0,4,0,6,0,0.666666666666667,0,1,FALSE,0
"183","ADHD","start_with_long_delay"," test",8,"short",9,1,4,4,0.35,0.65," left",1,0.35,0.45,0.55,0.65,"unrewarded",5,94,1,6,0.5,1,"0DKx3BNQ",0.770375399850309,0,"rewarded","unrewarded","unrewarded",FALSE,1,0.3,0,1,4,1,0,1,0,0,4,0,2,0,6,0,0,0,0.666666666666667,0,0,0,2,0,0,0,NA,FALSE,0
"184","ADHD","start_with_long_delay"," test",8,"short",10,4,1,1,0.65,0.35," left",1,0.35,0.45,0.55,0.65,"unrewarded",5,94,1,6,0.5,1,"0DKx3BNQ",0.920481099979952,0,"unrewarded","rewarded","unrewarded",TRUE,1,0.3,1,4,1,4,0,4,0,0,4,0,2,0,6,1,0,0,0.666666666666667,0,0,0,1,2,0,0,NA,FALSE,0
"185","ADHD","start_with_long_delay"," test",8,"short",11,1,3,3,0.35,0.55," left",1,0.35,0.45,0.55,0.65,"rewarded",6,95,1,6,0.5,1,"0DKx3BNQ",0.392503099981695,0,"unrewarded","unrewarded","rewarded",FALSE,1,0.2,0,1,3,1,0,1,1,0,4,0,3,0,6,1,0.333333333333333,0,0.666666666666667,0,1,4,3,6,0.333333333333333,0.666666666666667,0,FALSE,0
"186","ADHD","start_with_long_delay"," test",8,"short",12,1,2,1,0.35,0.45," right",2,0.35,0.45,0.55,0.65,"unrewarded",6,95,1,6,0.5,1,"0DKx3BNQ",0.477237999904901,1,"rewarded","unrewarded","unrewarded",TRUE,0,0.1,0,2,1,1,1,2,1,0,4,0,4,0,6,1,0.25,0,0.666666666666667,0,1,0,4,0,0.25,0,1,FALSE,0
"187","ADHD","start_with_long_delay"," test",8,"short",13,3,4,4,0.55,0.65," left",1,0.35,0.45,0.55,0.65,"unrewarded",6,95,1,6,0.5,1,"0DKx3BNQ",0.328264400130138,0,"unrewarded","rewarded","unrewarded",FALSE,0,0.1,0,3,4,3,0,3,1,0,4,0,4,0,7,1,0.25,0,0.571428571428571,0,4,0,7,1,0.571428571428571,0,1,FALSE,0
"188","ADHD","start_with_long_delay"," test",8,"short",14,1,4,4,0.35,0.65," left",1,0.35,0.45,0.55,0.65,"unrewarded",6,95,1,6,0.5,1,"0DKx3BNQ",0.340240100165829,0,"unrewarded","unrewarded","rewarded",FALSE,1,0.3,0,1,4,1,0,1,1,0,4,0,5,0,7,1,0.2,0,0.571428571428571,0,1,0,5,1,0.2,0,1,FALSE,0
"189","ADHD","start_with_long_delay"," test",8,"short",15,1,2,2,0.35,0.45," left",1,0.35,0.45,0.55,0.65,"rewarded",7,96,1,6,0.5,1,"0DKx3BNQ",0.395512499846518,1,"unrewarded","unrewarded","unrewarded",TRUE,1,0.1,0,1,2,1,0,1,2,0,4,0,6,0,7,1,0.333333333333333,0,0.571428571428571,0,2,0,6,0,0.333333333333333,0,1,FALSE,0
"190","ADHD","start_with_long_delay"," test",8,"short",16,1,4,4,0.35,0.65," left",1,0.35,0.45,0.55,0.65,"rewarded",8,97,1,6,0.5,1,"0DKx3BNQ",0.360351999988779,1,"rewarded","unrewarded","unrewarded",TRUE,1,0.3,0,1,4,1,0,1,3,0,4,0,7,0,7,1,0.428571428571429,0,0.571428571428571,0,3,0,7,1,0.428571428571429,0,1,FALSE,0
"191","ADHD","start_with_long_delay"," test",8,"short",17,1,4,4,0.35,0.65," left",1,0.35,0.45,0.55,0.65,"rewarded",9,98,1,6,0.5,1,"0DKx3BNQ",0.561381899984553,1,"rewarded","rewarded","unrewarded",TRUE,1,0.3,0,1,4,1,0,1,4,0,4,0,8,0,7,1,0.5,0,0.571428571428571,0,4,0,8,1,0.5,0,1,FALSE,0
"192","ADHD","start_with_long_delay"," test",8,"short",18,3,1,3,0.55,0.35," right",2,0.35,0.45,0.55,0.65,"rewarded",10,99,1,6,0.5,1,"0DKx3BNQ",0.452728499891236,0,"rewarded","rewarded","rewarded",TRUE,0,0.2,1,1,3,3,1,1,4,0,5,0,8,0,8,1,0.5,0,0.625,0,5,4,8,8,0.625,0.5,1,FALSE,0
"193","ADHD","start_with_long_delay"," test",8,"short",19,3,1,1,0.55,0.35," left",1,0.35,0.45,0.55,0.65,"unrewarded",10,99,1,6,0.5,1,"0DKx3BNQ",0.344416500069201,1,"rewarded","rewarded","rewarded",TRUE,0,0.2,1,3,1,3,0,3,4,0,5,0,8,0,9,1,0.5,0,0.555555555555556,0,5,4,9,8,0.555555555555556,0.5,1,FALSE,0
"194","ADHD","start_with_long_delay"," test",8,"short",20,4,2,4,0.65,0.45," right",2,0.35,0.45,0.55,0.65,"rewarded",11,100,1,6,0.5,1,"0DKx3BNQ",0.662568700034171,0,"unrewarded","rewarded","rewarded",FALSE,0,0.2,1,2,4,4,1,2,4,0,5,1,8,0,9,2,0.5,0,0.555555555555556,0.5,1,0,2,0,0.5,0,1,FALSE,0
"195","ADHD","start_with_long_delay"," test",8,"short",21,4,2,2,0.65,0.45," left",1,0.35,0.45,0.55,0.65,"rewarded",12,101,1,6,0.5,1,"0DKx3BNQ",0.400942400097847,1,"rewarded","unrewarded","rewarded",TRUE,0,0.2,1,4,2,4,0,4,4,0,5,2,8,0,9,3,0.5,0,0.555555555555556,0.666666666666667,2,0,3,0,0.666666666666667,0,1,FALSE,0
"196","ADHD","start_with_long_delay"," test",8,"short",22,3,4,4,0.55,0.65," left",1,0.35,0.45,0.55,0.65,"unrewarded",12,101,1,6,0.5,1,"0DKx3BNQ",0.442587900208309,0,"rewarded","rewarded","unrewarded",TRUE,1,0.1,0,3,4,3,0,3,4,0,5,2,8,0,10,3,0.5,0,0.5,0.666666666666667,5,2,10,3,0.5,0.666666666666667,0,FALSE,0
"197","ADHD","start_with_long_delay"," test",8,"short",23,3,1,1,0.55,0.35," left",1,0.35,0.45,0.55,0.65,"rewarded",13,102,1,6,0.5,1,"0DKx3BNQ",0.368724799947813,1,"unrewarded","rewarded","rewarded",TRUE,1,0.2,1,3,1,3,0,3,4,0,6,2,8,0,11,3,0.5,0,0.545454545454545,0.666666666666667,6,4,11,8,0.545454545454545,0.5,1,FALSE,0
"198","ADHD","start_with_long_delay"," test",8,"short",24,1,2,1,0.35,0.45," right",2,0.35,0.45,0.55,0.65,"unrewarded",13,102,1,6,0.5,1,"0DKx3BNQ",0.370439399965107,0,"rewarded","unrewarded","rewarded",FALSE,0,0.1,0,2,1,1,1,2,4,0,6,2,9,0,11,3,0.444444444444444,0,0.545454545454545,0.666666666666667,4,0,9,0,0.444444444444444,0,1,FALSE,0
"199","ADHD","start_with_long_delay"," test",8,"short",25,1,2,2,0.35,0.45," left",1,0.35,0.45,0.55,0.65,"rewarded",14,103,1,6,0.5,1,"0DKx3BNQ",0.360417800024152,1,"unrewarded","rewarded","unrewarded",TRUE,0,0.1,0,1,2,1,0,1,5,0,6,2,10,0,11,3,0.5,0,0.545454545454545,0.666666666666667,5,0,10,0,0.5,0,1,FALSE,0
"200","control","start_with_long_delay"," test",1,"long",1,3,4,4,0.55,0.65," left",1,0.35,0.45,0.55,0.65,"rewarded",1,1,1,6,0.5,1,"3f5MYPfx",0.681591100001242,0,"rewarded","unrewarded","rewarded",FALSE,1,0.1,0,3,4,3,0,3,0,0,0,0,0,0,0,0,0,0,0,0,0,0,0,0,0,0,NA,FALSE,1
"201","control","start_with_long_delay"," test",1,"long",2,1,4,1,0.35,0.65," right",2,0.35,0.45,0.55,0.65,"unrewarded",1,1,1,6,0.5,1,"3f5MYPfx",0.637272100007976,0,"rewarded","rewarded","unrewarded",FALSE,0,0.3,0,4,1,1,1,4,0,0,0,0,1,0,0,0,0,0,0,0,0,0,1,0,0,0,NA,FALSE,0
"202","control","start_with_long_delay"," test",1,"long",3,3,1,1,0.55,0.35," left",1,0.35,0.45,0.55,0.65,"unrewarded",1,1,1,6,0.5,1,"3f5MYPfx",0.509973799998988,0,"unrewarded","rewarded","rewarded",TRUE,0,0.2,1,3,1,3,0,3,0,0,0,0,1,0,1,0,0,0,0,0,0,0,1,1,0,0,NA,FALSE,0
"203","control","start_with_long_delay"," test",1,"long",4,1,4,1,0.35,0.65," right",2,0.35,0.45,0.55,0.65,"unrewarded",1,1,1,6,0.5,1,"3f5MYPfx",0.348073000001023,0,"unrewarded","unrewarded","rewarded",FALSE,0,0.3,0,4,1,1,1,4,0,0,0,0,2,0,1,0,0,0,0,0,0,0,2,0,0,0,NA,FALSE,0
"204","control","start_with_long_delay"," test",1,"long",5,2,1,2,0.45,0.35," right",2,0.35,0.45,0.55,0.65,"unrewarded",1,1,1,6,0.5,1,"3f5MYPfx",0.710176699998556,0,"unrewarded","unrewarded","unrewarded",TRUE,1,0.1,1,1,2,2,1,1,0,0,0,0,2,1,1,0,0,0,0,0,0,0,1,2,0,0,NA,FALSE,0
"205","control","start_with_long_delay"," test",1,"long",6,2,1,2,0.45,0.35," right",2,0.35,0.45,0.55,0.65,"unrewarded",1,1,1,6,0.5,1,"3f5MYPfx",0.839062600003672,1,"unrewarded","unrewarded","unrewarded",TRUE,1,0.1,1,1,2,2,1,1,0,0,0,0,2,2,1,0,0,0,0,0,0,0,2,2,0,0,NA,FALSE,0
"206","control","start_with_long_delay"," test",1,"long",7,3,4,4,0.55,0.65," left",1,0.35,0.45,0.55,0.65,"unrewarded",1,1,1,6,0.5,1,"3f5MYPfx",0.493105500005186,0,"unrewarded","unrewarded","unrewarded",FALSE,0,0.1,0,3,4,3,0,3,0,0,0,0,2,2,2,0,0,0,0,0,0,0,2,0,0,0,NA,FALSE,0
"207","control","start_with_long_delay"," test",1,"long",8,2,4,4,0.45,0.65," left",1,0.35,0.45,0.55,0.65,"unrewarded",1,1,1,6,0.5,1,"3f5MYPfx",0.686731800000416,0,"unrewarded","unrewarded","unrewarded",FALSE,1,0.2,0,2,4,2,0,2,0,0,0,0,2,3,2,0,0,0,0,0,0,0,3,0,0,0,NA,FALSE,0
"208","control","start_with_long_delay"," test",1,"long",9,4,2,4,0.65,0.45," right",2,0.35,0.45,0.55,0.65,"rewarded",2,2,1,6,0.5,1,"3f5MYPfx",0.435866600004374,0,"unrewarded","unrewarded","unrewarded",TRUE,0,0.2,1,2,4,4,1,2,0,0,0,1,2,3,2,1,0,0,0,1,1,0,1,3,1,0,1,FALSE,0
"209","control","start_with_long_delay"," test",1,"long",10,4,3,4,0.65,0.55," right",2,0.35,0.45,0.55,0.65,"rewarded",3,3,1,6,0.5,1,"3f5MYPfx",0.685446599993156,1,"rewarded","unrewarded","unrewarded",TRUE,1,0.1,1,3,4,4,1,3,0,0,0,2,2,3,2,2,0,0,0,1,2,0,2,2,1,0,1,FALSE,0
"210","control","start_with_long_delay"," test",1,"long",11,1,3,1,0.35,0.55," right",2,0.35,0.45,0.55,0.65,"unrewarded",3,3,1,6,0.5,1,"3f5MYPfx",1.05079900000419,0,"rewarded","rewarded","unrewarded",FALSE,1,0.2,0,3,1,1,1,3,0,0,0,2,3,3,2,2,0,0,0,1,0,0,3,2,0,0,NA,FALSE,0
"211","control","start_with_long_delay"," test",1,"long",12,4,2,4,0.65,0.45," right",2,0.35,0.45,0.55,0.65,"unrewarded",3,3,1,6,0.5,1,"3f5MYPfx",1.42859759999556,0,"unrewarded","rewarded","rewarded",FALSE,1,0.2,1,2,4,4,1,2,0,0,0,2,3,3,2,3,0,0,0,0.666666666666667,2,0,3,3,0.666666666666667,0,1,FALSE,0
"212","control","start_with_long_delay"," test",1,"long",13,3,1,3,0.55,0.35," right",2,0.35,0.45,0.55,0.65,"rewarded",4,4,1,6,0.5,1,"3f5MYPfx",1.25177580000309,0,"unrewarded","unrewarded","rewarded",FALSE,1,0.2,1,1,3,3,1,1,0,0,1,2,3,3,3,3,0,0,0.333333333333333,0.666666666666667,1,0,3,3,0.333333333333333,0,1,FALSE,0
"213","control","start_with_long_delay"," test",1,"long",14,4,1,1,0.65,0.35," left",1,0.35,0.45,0.55,0.65,"rewarded",5,5,1,6,0.5,1,"3f5MYPfx",0.853320099995472,0,"rewarded","unrewarded","unrewarded",FALSE,0,0.3,1,4,1,4,0,4,0,0,1,3,3,3,3,4,0,0,0.333333333333333,0.75,3,0,4,3,0.75,0,1,FALSE,0
"214","control","start_with_long_delay"," test",1,"long",15,4,2,4,0.65,0.45," right",2,0.35,0.45,0.55,0.65,"rewarded",6,6,1,6,0.5,1,"3f5MYPfx",0.711920000001555,1,"rewarded","rewarded","unrewarded",TRUE,0,0.2,1,2,4,4,1,2,0,0,1,4,3,3,3,5,0,0,0.333333333333333,0.8,4,0,5,3,0.8,0,1,FALSE,0
"215","control","start_with_long_delay"," test",1,"long",17,4,2,4,0.65,0.45," right",2,0.35,0.45,0.55,0.65,"unrewarded",7,7,1,6,0.5,1,"3f5MYPfx",0.934481000003871,0,"rewarded","rewarded","rewarded",FALSE,0,0.2,1,2,4,4,1,2,1,0,1,4,4,3,3,6,0.25,0,0.333333333333333,0.666666666666667,4,0,6,3,0.666666666666667,0,1,FALSE,0
"216","control","start_with_long_delay"," test",1,"long",18,2,3,3,0.45,0.55," left",1,0.35,0.45,0.55,0.65,"unrewarded",7,7,1,6,0.5,1,"3f5MYPfx",0.821021499999915,0,"unrewarded","rewarded","rewarded",FALSE,0,0.1,0,2,3,2,0,2,1,0,1,4,4,4,3,6,0.25,0,0.333333333333333,0.666666666666667,0,1,4,3,0,0.333333333333333,0,FALSE,0
"217","control","start_with_long_delay"," test",1,"long",19,3,1,3,0.55,0.35," right",2,0.35,0.45,0.55,0.65,"unrewarded",7,7,1,6,0.5,1,"3f5MYPfx",0.399612100009108,0,"unrewarded","unrewarded","rewarded",FALSE,0,0.2,1,1,3,3,1,1,1,0,1,4,4,4,4,6,0.25,0,0.25,0.666666666666667,1,1,4,4,0.25,0.25,0,FALSE,0
"218","control","start_with_long_delay"," test",1,"long",20,2,3,2,0.45,0.55," right",2,0.35,0.45,0.55,0.65,"rewarded",8,8,1,6,0.5,1,"3f5MYPfx",1.13435789999494,0,"unrewarded","unrewarded","unrewarded",TRUE,1,0.1,0,3,2,2,1,3,1,1,1,4,4,5,4,6,0.25,0.2,0.25,0.666666666666667,1,1,5,4,0.2,0.25,0,FALSE,0
"219","control","start_with_long_delay"," test",1,"long",21,2,1,1,0.45,0.35," left",1,0.35,0.45,0.55,0.65,"unrewarded",8,8,1,6,0.5,1,"3f5MYPfx",0.470864100003382,1,"rewarded","unrewarded","unrewarded",TRUE,0,0.1,1,2,1,2,0,2,1,1,1,4,4,6,4,6,0.25,0.166666666666667,0.25,0.666666666666667,1,1,6,4,0.166666666666667,0.25,0,FALSE,0
"220","control","start_with_long_delay"," test",1,"long",22,2,1,2,0.45,0.35," right",2,0.35,0.45,0.55,0.65,"unrewarded",8,8,1,6,0.5,1,"3f5MYPfx",0.594111099999282,1,"unrewarded","rewarded","unrewarded",TRUE,0,0.1,1,1,2,2,1,1,1,1,1,4,4,7,4,6,0.25,0.142857142857143,0.25,0.666666666666667,1,1,7,4,0.142857142857143,0.25,0,FALSE,0
"221","control","start_with_long_delay"," test",1,"long",23,4,1,1,0.65,0.35," left",1,0.35,0.45,0.55,0.65,"rewarded",9,9,1,6,0.5,1,"3f5MYPfx",0.552077100001043,0,"unrewarded","unrewarded","rewarded",FALSE,0,0.3,1,4,1,4,0,4,1,1,1,5,4,7,4,7,0.25,0.142857142857143,0.25,0.714285714285714,5,1,7,4,0.714285714285714,0.25,1,FALSE,0
"222","control","start_with_long_delay"," test",1,"long",24,1,2,1,0.35,0.45," right",2,0.35,0.45,0.55,0.65,"unrewarded",9,9,1,6,0.5,1,"3f5MYPfx",1.03529210000124,0,"rewarded","unrewarded","unrewarded",FALSE,0,0.1,0,2,1,1,1,2,1,1,1,5,5,7,4,7,0.2,0.142857142857143,0.25,0.714285714285714,1,1,5,7,0.2,0.142857142857143,1,FALSE,0
"223","control","start_with_long_delay"," test",1,"long",25,4,3,4,0.65,0.55," right",2,0.35,0.45,0.55,0.65,"rewarded",10,10,1,6,0.5,1,"3f5MYPfx",0.958754999999655,0,"unrewarded","rewarded","unrewarded",FALSE,1,0.1,1,3,4,4,1,3,1,1,1,6,5,7,4,8,0.2,0.142857142857143,0.25,0.75,6,1,8,4,0.75,0.25,1,FALSE,0
"224","control","start_with_long_delay"," test",2,"short",1,2,1,2,0.45,0.35," right",2,0.35,0.45,0.55,0.65,"rewarded",1,11,1,6,0.5,1,"3f5MYPfx",0.992075699992711,0,"rewarded","unrewarded","rewarded",FALSE,1,0.1,1,1,2,2,1,1,0,0,0,0,0,0,0,0,0,0,0,0,0,0,0,0,0,0,NA,FALSE,1
"225","control","start_with_long_delay"," test",2,"short",2,3,4,3,0.55,0.65," right",2,0.35,0.45,0.55,0.65,"rewarded",2,12,1,6,0.5,1,"3f5MYPfx",0.98887200000172,0,"rewarded","rewarded","unrewarded",FALSE,1,0.1,0,4,3,3,1,4,0,0,1,0,0,0,1,0,0,0,1,0,1,0,1,0,1,0,1,FALSE,0
"226","control","start_with_long_delay"," test",2,"short",3,1,4,4,0.35,0.65," left",1,0.35,0.45,0.55,0.65,"unrewarded",2,12,1,6,0.5,1,"3f5MYPfx",0.398059400002239,0,"rewarded","rewarded","rewarded",FALSE,0,0.3,0,1,4,1,0,1,0,0,1,0,1,0,1,0,0,0,1,0,0,0,1,0,0,0,NA,FALSE,0
"227","control","start_with_long_delay"," test",2,"short",4,3,1,1,0.55,0.35," left",1,0.35,0.45,0.55,0.65,"rewarded",3,13,1,6,0.5,1,"3f5MYPfx",0.663219800000661,0,"unrewarded","rewarded","rewarded",TRUE,1,0.2,1,3,1,3,0,3,0,0,2,0,1,0,2,0,0,0,1,0,2,0,2,1,1,0,1,FALSE,0
"228","control","start_with_long_delay"," test",2,"short",5,3,1,1,0.55,0.35," left",1,0.35,0.45,0.55,0.65,"unrewarded",3,13,1,6,0.5,1,"3f5MYPfx",0.601538100003381,1,"rewarded","unrewarded","rewarded",TRUE,1,0.2,1,3,1,3,0,3,0,0,2,0,1,0,3,0,0,0,0.666666666666667,0,2,0,3,1,0.666666666666667,0,1,FALSE,0
"229","control","start_with_long_delay"," test",2,"short",6,3,1,3,0.55,0.35," right",2,0.35,0.45,0.55,0.65,"rewarded",4,14,1,6,0.5,1,"3f5MYPfx",0.85493800000404,1,"unrewarded","rewarded","unrewarded",TRUE,0,0.2,1,1,3,3,1,1,0,0,3,0,1,0,4,0,0,0,0.75,0,3,0,4,1,0.75,0,1,FALSE,0
"230","control","start_with_long_delay"," test",2,"short",7,2,4,4,0.45,0.65," left",1,0.35,0.45,0.55,0.65,"unrewarded",4,14,1,6,0.5,1,"3f5MYPfx",0.608703299993067,0,"rewarded","unrewarded","rewarded",FALSE,0,0.2,0,2,4,2,0,2,0,0,3,0,1,1,4,0,0,0,0.75,0,0,0,1,0,0,0,NA,FALSE,0
"231","control","start_with_long_delay"," test",2,"short",8,3,1,1,0.55,0.35," left",1,0.35,0.45,0.55,0.65,"rewarded",5,15,1,6,0.5,1,"3f5MYPfx",0.632787700000335,0,"unrewarded","rewarded","unrewarded",FALSE,1,0.2,1,3,1,3,0,3,0,0,4,0,1,1,5,0,0,0,0.8,0,4,0,5,1,0.8,0,1,FALSE,0
"232","control","start_with_long_delay"," test",2,"short",9,3,1,1,0.55,0.35," left",1,0.35,0.45,0.55,0.65,"unrewarded",5,15,1,6,0.5,1,"3f5MYPfx",0.460213900005328,1,"rewarded","unrewarded","rewarded",TRUE,1,0.2,1,3,1,3,0,3,0,0,4,0,1,1,6,0,0,0,0.666666666666667,0,4,0,6,1,0.666666666666667,0,1,FALSE,0
"233","control","start_with_long_delay"," test",2,"short",10,3,1,3,0.55,0.35," right",2,0.35,0.45,0.55,0.65,"rewarded",6,16,1,6,0.5,1,"3f5MYPfx",0.517706600003294,1,"unrewarded","rewarded","unrewarded",TRUE,0,0.2,1,1,3,3,1,1,0,0,5,0,1,1,7,0,0,0,0.714285714285714,0,5,0,7,1,0.714285714285714,0,1,FALSE,0
"234","control","start_with_long_delay"," test",2,"short",11,2,1,1,0.45,0.35," left",1,0.35,0.45,0.55,0.65,"unrewarded",6,16,1,6,0.5,1,"3f5MYPfx",1.11299380000855,0,"rewarded","unrewarded","rewarded",FALSE,0,0.1,1,2,1,2,0,2,0,0,5,0,1,2,7,0,0,0,0.714285714285714,0,0,0,2,1,0,0,NA,FALSE,0
"235","control","start_with_long_delay"," test",2,"short",12,3,1,3,0.55,0.35," right",2,0.35,0.45,0.55,0.65,"rewarded",7,17,1,6,0.5,1,"3f5MYPfx",0.506369199996698,0,"unrewarded","rewarded","unrewarded",FALSE,0,0.2,1,1,3,3,1,1,0,0,6,0,1,2,8,0,0,0,0.75,0,6,0,8,1,0.75,0,1,FALSE,0
"236","control","start_with_long_delay"," test",2,"short",13,3,1,1,0.55,0.35," left",1,0.35,0.45,0.55,0.65,"rewarded",8,18,1,6,0.5,1,"3f5MYPfx",0.597477800009074,1,"rewarded","unrewarded","rewarded",TRUE,0,0.2,1,3,1,3,0,3,0,0,7,0,1,2,9,0,0,0,0.777777777777778,0,7,0,9,1,0.777777777777778,0,1,FALSE,0
"237","control","start_with_long_delay"," test",2,"short",14,3,4,4,0.55,0.65," left",1,0.35,0.45,0.55,0.65,"rewarded",9,19,1,6,0.5,1,"3f5MYPfx",1.91908740000508,1,"rewarded","rewarded","unrewarded",TRUE,1,0.1,0,3,4,3,0,3,0,0,8,0,1,2,10,0,0,0,0.8,0,8,0,10,0,0.8,0,1,FALSE,0
"238","control","start_with_long_delay"," test",2,"short",15,2,3,2,0.45,0.55," right",2,0.35,0.45,0.55,0.65,"unrewarded",9,19,1,6,0.5,1,"3f5MYPfx",1.57247610000195,0,"rewarded","rewarded","rewarded",TRUE,0,0.1,0,3,2,2,1,3,0,0,8,0,1,3,10,0,0,0,0.8,0,0,8,3,10,0,0.8,0,FALSE,0
"239","control","start_with_long_delay"," test",2,"short",16,2,4,2,0.45,0.65," right",2,0.35,0.45,0.55,0.65,"unrewarded",9,19,1,6,0.5,1,"3f5MYPfx",0.883404600012,1,"unrewarded","rewarded","rewarded",TRUE,1,0.2,0,4,2,2,1,4,0,0,8,0,1,4,10,0,0,0,0.8,0,0,0,4,0,0,0,NA,FALSE,0
"240","control","start_with_long_delay"," test",2,"short",17,4,3,4,0.65,0.55," right",2,0.35,0.45,0.55,0.65,"rewarded",10,20,1,6,0.5,1,"3f5MYPfx",0.740380200004438,0,"unrewarded","unrewarded","rewarded",FALSE,1,0.1,1,3,4,4,1,3,0,0,8,1,1,4,10,1,0,0,0.8,1,1,8,1,10,1,0.8,1,FALSE,0
"241","control","start_with_long_delay"," test",2,"short",18,2,1,1,0.45,0.35," left",1,0.35,0.45,0.55,0.65,"rewarded",11,21,1,6,0.5,1,"3f5MYPfx",1.62642149999738,0,"rewarded","unrewarded","unrewarded",FALSE,0,0.1,1,2,1,2,0,2,0,1,8,1,1,5,10,1,0,0.2,0.8,1,1,0,5,1,0.2,0,1,FALSE,0
"242","control","start_with_long_delay"," test",2,"short",19,4,2,4,0.65,0.45," right",2,0.35,0.45,0.55,0.65,"unrewarded",11,21,1,6,0.5,1,"3f5MYPfx",1.03358930000104,0,"rewarded","rewarded","unrewarded",TRUE,0,0.2,1,2,4,4,1,2,0,1,8,1,1,5,10,2,0,0.2,0.8,0.5,1,1,2,5,0.5,0.2,1,FALSE,0
"243","control","start_with_long_delay"," test",2,"short",20,3,1,3,0.55,0.35," right",2,0.35,0.45,0.55,0.65,"unrewarded",11,21,1,6,0.5,1,"3f5MYPfx",0.621205000003101,0,"unrewarded","rewarded","rewarded",FALSE,1,0.2,1,1,3,3,1,1,0,1,8,1,1,5,11,2,0,0.2,0.727272727272727,0.5,8,0,11,1,0.727272727272727,0,1,FALSE,0
"244","control","start_with_long_delay"," test",2,"short",21,2,1,1,0.45,0.35," left",1,0.35,0.45,0.55,0.65,"unrewarded",11,21,1,6,0.5,1,"3f5MYPfx",0.801938000004156,0,"unrewarded","unrewarded","rewarded",FALSE,0,0.1,1,2,1,2,0,2,0,1,8,1,1,6,11,2,0,0.166666666666667,0.727272727272727,0.5,1,0,6,1,0.166666666666667,0,1,FALSE,0
"245","control","start_with_long_delay"," test",2,"short",22,4,2,2,0.65,0.45," left",1,0.35,0.45,0.55,0.65,"unrewarded",11,21,1,6,0.5,1,"3f5MYPfx",0.534127299993997,0,"unrewarded","unrewarded","unrewarded",TRUE,1,0.2,1,4,2,4,0,4,0,1,8,1,1,6,11,3,0,0.166666666666667,0.727272727272727,0.333333333333333,1,1,3,6,0.333333333333333,0.166666666666667,1,FALSE,0
"246","control","start_with_long_delay"," test",2,"short",23,3,2,2,0.55,0.45," left",1,0.35,0.45,0.55,0.65,"rewarded",12,22,1,6,0.5,1,"3f5MYPfx",0.542021600005683,0,"unrewarded","unrewarded","unrewarded",FALSE,1,0.1,1,3,2,3,0,3,0,1,9,1,1,6,12,3,0,0.166666666666667,0.75,0.333333333333333,9,1,12,6,0.75,0.166666666666667,1,FALSE,0
"247","control","start_with_long_delay"," test",2,"short",24,3,1,3,0.55,0.35," right",2,0.35,0.45,0.55,0.65,"rewarded",13,23,1,6,0.5,1,"3f5MYPfx",0.675936900006491,1,"rewarded","unrewarded","unrewarded",TRUE,0,0.2,1,1,3,3,1,1,0,1,10,1,1,6,13,3,0,0.166666666666667,0.769230769230769,0.333333333333333,10,0,13,1,0.769230769230769,0,1,FALSE,0
"248","control","start_with_long_delay"," test",2,"short",25,4,1,4,0.65,0.35," right",2,0.35,0.45,0.55,0.65,"unrewarded",13,23,1,6,0.5,1,"3f5MYPfx",1.17308579999371,0,"rewarded","rewarded","unrewarded",FALSE,1,0.3,1,1,4,4,1,1,0,1,10,1,1,6,13,4,0,0.166666666666667,0.769230769230769,0.25,1,0,4,1,0.25,0,1,FALSE,0
"249","control","start_with_long_delay"," test",3,"long",1,1,3,3,0.35,0.55," left",1,0.35,0.45,0.55,0.65,"rewarded",1,24,1,6,0.5,1,"3f5MYPfx",0.739756199996918,0,"unrewarded","rewarded","rewarded",FALSE,0,0.2,0,1,3,1,0,1,0,0,0,0,0,0,0,0,0,0,0,0,0,0,0,0,0,0,NA,FALSE,1
"250","control","start_with_long_delay"," test",3,"long",2,1,3,1,0.35,0.55," right",2,0.35,0.45,0.55,0.65,"rewarded",2,25,1,6,0.5,1,"3f5MYPfx",0.364271999991615,1,"rewarded","unrewarded","rewarded",TRUE,0,0.2,0,3,1,1,1,3,1,0,0,0,1,0,0,0,1,0,0,0,1,0,1,0,1,0,1,FALSE,0
"251","control","start_with_long_delay"," test",3,"long",3,2,1,1,0.45,0.35," left",1,0.35,0.45,0.55,0.65,"unrewarded",2,25,1,6,0.5,1,"3f5MYPfx",0.617461899993941,0,"rewarded","rewarded","unrewarded",TRUE,0,0.1,1,2,1,2,0,2,1,0,0,0,1,1,0,0,1,0,0,0,0,1,1,1,0,1,0,FALSE,0
"252","control","start_with_long_delay"," test",3,"long",4,1,2,2,0.35,0.45," left",1,0.35,0.45,0.55,0.65,"unrewarded",2,25,1,6,0.5,1,"3f5MYPfx",0.520954599996912,0,"unrewarded","rewarded","rewarded",TRUE,1,0.1,0,1,2,1,0,1,1,0,0,0,2,1,0,0,0.5,0,0,0,1,0,2,1,0.5,0,1,FALSE,0
"253","control","start_with_long_delay"," test",3,"long",5,2,4,2,0.45,0.65," right",2,0.35,0.45,0.55,0.65,"rewarded",3,26,1,6,0.5,1,"3f5MYPfx",0.650396299999557,0,"unrewarded","unrewarded","rewarded",FALSE,0,0.2,0,4,2,2,1,4,1,1,0,0,2,2,0,0,0.5,0.5,0,0,1,0,2,0,0.5,0,1,FALSE,0
"254","control","start_with_long_delay"," test",3,"long",6,4,3,3,0.65,0.55," left",1,0.35,0.45,0.55,0.65,"rewarded",4,27,1,6,0.5,1,"3f5MYPfx",0.667709600005765,0,"rewarded","unrewarded","unrewarded",FALSE,0,0.1,1,4,3,4,0,4,1,1,0,1,2,2,0,1,0.5,0.5,0,1,1,0,1,0,1,0,1,FALSE,0
"255","control","start_with_long_delay"," test",3,"long",7,1,3,1,0.35,0.55," right",2,0.35,0.45,0.55,0.65,"unrewarded",4,27,1,6,0.5,1,"3f5MYPfx",0.401644700003089,0,"rewarded","rewarded","unrewarded",FALSE,0,0.2,0,3,1,1,1,3,1,1,0,1,3,2,0,1,0.333333333333333,0.5,0,1,1,0,3,0,0.333333333333333,0,1,FALSE,0
"256","control","start_with_long_delay"," test",3,"long",8,3,4,4,0.55,0.65," left",1,0.35,0.45,0.55,0.65,"unrewarded",4,27,1,6,0.5,1,"3f5MYPfx",0.710497299995041,0,"unrewarded","rewarded","rewarded",FALSE,0,0.1,0,3,4,3,0,3,1,1,0,1,3,2,1,1,0.333333333333333,0.5,0,1,0,1,1,1,0,1,0,FALSE,0
"257","control","start_with_long_delay"," test",3,"long",9,1,2,2,0.35,0.45," left",1,0.35,0.45,0.55,0.65,"unrewarded",4,27,1,6,0.5,1,"3f5MYPfx",0.542823700001463,0,"unrewarded","unrewarded","rewarded",FALSE,1,0.1,0,1,2,1,0,1,1,1,0,1,4,2,1,1,0.25,0.5,0,1,1,1,4,2,0.25,0.5,0,FALSE,0
"258","control","start_with_long_delay"," test",3,"long",10,3,1,3,0.55,0.35," right",2,0.35,0.45,0.55,0.65,"unrewarded",4,27,1,6,0.5,1,"3f5MYPfx",0.688177800009726,0,"unrewarded","unrewarded","unrewarded",TRUE,0,0.2,1,1,3,3,1,1,1,1,0,1,4,2,2,1,0.25,0.5,0,1,0,1,2,4,0,0.25,0,FALSE,0
"259","control","start_with_long_delay"," test",3,"long",11,1,3,3,0.35,0.55," left",1,0.35,0.45,0.55,0.65,"unrewarded",4,27,1,6,0.5,1,"3f5MYPfx",0.472184900005232,0,"unrewarded","unrewarded","unrewarded",TRUE,0,0.2,0,1,3,1,0,1,1,1,0,1,5,2,2,1,0.2,0.5,0,1,1,0,5,2,0.2,0,1,FALSE,0
"260","control","start_with_long_delay"," test",3,"long",12,4,3,4,0.65,0.55," right",2,0.35,0.45,0.55,0.65,"rewarded",5,28,1,6,0.5,1,"3f5MYPfx",1.11517699999968,0,"unrewarded","unrewarded","unrewarded",FALSE,0,0.1,1,3,4,4,1,3,1,1,0,2,5,2,2,2,0.2,0.5,0,1,2,0,2,2,1,0,1,FALSE,0
"261","control","start_with_long_delay"," test",3,"long",13,4,1,4,0.65,0.35," right",2,0.35,0.45,0.55,0.65,"unrewarded",5,28,1,6,0.5,1,"3f5MYPfx",0.358941300000879,1,"rewarded","unrewarded","unrewarded",TRUE,1,0.3,1,1,4,4,1,1,1,1,0,2,5,2,2,3,0.2,0.5,0,0.666666666666667,2,1,3,5,0.666666666666667,0.2,1,FALSE,0
"262","control","start_with_long_delay"," test",3,"long",14,4,3,4,0.65,0.55," right",2,0.35,0.45,0.55,0.65,"rewarded",6,29,1,6,0.5,1,"3f5MYPfx",0.880733199999668,1,"unrewarded","rewarded","unrewarded",TRUE,1,0.1,1,3,4,4,1,3,1,1,0,3,5,2,2,4,0.2,0.5,0,0.75,3,0,4,2,0.75,0,1,FALSE,0
"263","control","start_with_long_delay"," test",3,"long",15,1,4,4,0.35,0.65," left",1,0.35,0.45,0.55,0.65,"rewarded",7,30,1,6,0.5,1,"3f5MYPfx",0.520392899998114,0,"rewarded","unrewarded","rewarded",TRUE,0,0.3,0,1,4,1,0,1,2,1,0,3,6,2,2,4,0.333333333333333,0.5,0,0.75,2,3,6,4,0.333333333333333,0.75,0,FALSE,0
"264","control","start_with_long_delay"," test",3,"long",16,3,4,3,0.55,0.65," right",2,0.35,0.45,0.55,0.65,"unrewarded",7,30,1,6,0.5,1,"3f5MYPfx",0.913016400008928,0,"rewarded","rewarded","unrewarded",FALSE,0,0.1,0,4,3,3,1,4,2,1,0,3,6,2,3,4,0.333333333333333,0.5,0,0.75,0,3,3,4,0,0.75,0,FALSE,0
"265","control","start_with_long_delay"," test",3,"long",17,4,2,2,0.65,0.45," left",1,0.35,0.45,0.55,0.65,"unrewarded",7,30,1,6,0.5,1,"3f5MYPfx",0.546062800000072,0,"unrewarded","rewarded","rewarded",FALSE,0,0.2,1,4,2,4,0,4,2,1,0,3,6,2,3,5,0.333333333333333,0.5,0,0.6,3,1,5,2,0.6,0.5,1,FALSE,0
"266","control","start_with_long_delay"," test",3,"long",18,3,2,3,0.55,0.45," right",2,0.35,0.45,0.55,0.65,"unrewarded",7,30,1,6,0.5,1,"3f5MYPfx",0.429324199998518,0,"unrewarded","unrewarded","rewarded",FALSE,0,0.1,1,2,3,3,1,2,2,1,0,3,6,2,4,5,0.333333333333333,0.5,0,0.6,0,1,4,2,0,0.5,0,FALSE,0
"267","control","start_with_long_delay"," test",3,"long",19,1,4,1,0.35,0.65," right",2,0.35,0.45,0.55,0.65,"unrewarded",7,30,1,6,0.5,1,"3f5MYPfx",0.546951800002716,0,"unrewarded","unrewarded","unrewarded",FALSE,1,0.3,0,4,1,1,1,4,2,1,0,3,7,2,4,5,0.285714285714286,0.5,0,0.6,2,3,7,5,0.285714285714286,0.6,0,FALSE,0
"268","control","start_with_long_delay"," test",3,"long",20,1,3,3,0.35,0.55," left",1,0.35,0.45,0.55,0.65,"rewarded",8,31,1,6,0.5,1,"3f5MYPfx",1.25950970000122,1,"unrewarded","unrewarded","unrewarded",TRUE,0,0.2,0,1,3,1,0,1,3,1,0,3,8,2,4,5,0.375,0.5,0,0.6,3,0,8,4,0.375,0,1,FALSE,0
"269","control","start_with_long_delay"," test",3,"long",21,4,1,1,0.65,0.35," left",1,0.35,0.45,0.55,0.65,"unrewarded",8,31,1,6,0.5,1,"3f5MYPfx",0.865085800003726,0,"rewarded","unrewarded","unrewarded",TRUE,1,0.3,1,4,1,4,0,4,3,1,0,3,8,2,4,6,0.375,0.5,0,0.5,3,3,6,8,0.5,0.375,1,FALSE,0
"270","control","start_with_long_delay"," test",3,"long",22,1,4,1,0.35,0.65," right",2,0.35,0.45,0.55,0.65,"unrewarded",8,31,1,6,0.5,1,"3f5MYPfx",0.529099799998221,0,"unrewarded","rewarded","unrewarded",TRUE,0,0.3,0,4,1,1,1,4,3,1,0,3,9,2,4,6,0.333333333333333,0.5,0,0.5,3,3,9,6,0.333333333333333,0.5,0,FALSE,0
"271","control","start_with_long_delay"," test",3,"long",23,4,2,4,0.65,0.45," right",2,0.35,0.45,0.55,0.65,"unrewarded",8,31,1,6,0.5,1,"3f5MYPfx",0.605051599995932,0,"unrewarded","unrewarded","rewarded",FALSE,1,0.2,1,2,4,4,1,2,3,1,0,3,9,2,4,7,0.333333333333333,0.5,0,0.428571428571429,3,1,7,2,0.428571428571429,0.5,0,FALSE,0
"272","control","start_with_long_delay"," test",3,"long",24,1,3,3,0.35,0.55," left",1,0.35,0.45,0.55,0.65,"rewarded",9,32,1,6,0.5,1,"3f5MYPfx",0.476515999995172,0,"unrewarded","unrewarded","unrewarded",FALSE,0,0.2,0,1,3,1,0,1,4,1,0,3,10,2,4,7,0.4,0.5,0,0.428571428571429,4,0,10,4,0.4,0,1,FALSE,0
"273","control","start_with_long_delay"," test",3,"long",25,2,3,3,0.45,0.55," left",1,0.35,0.45,0.55,0.65,"unrewarded",9,32,1,6,0.5,1,"3f5MYPfx",1.75441519999004,0,"rewarded","unrewarded","unrewarded",FALSE,1,0.1,0,2,3,2,0,2,4,1,0,3,10,3,4,7,0.4,0.333333333333333,0,0.428571428571429,1,0,3,4,0.333333333333333,0,1,FALSE,0
"274","control","start_with_long_delay"," test",4,"short",1,4,3,4,0.65,0.55," right",2,0.35,0.45,0.55,0.65,"unrewarded",0,32,1,6,0.5,1,"3f5MYPfx",1.08343039998726,0,"unrewarded","rewarded","unrewarded",FALSE,0,0.1,1,3,4,4,1,3,0,0,0,0,0,0,0,0,0,0,0,0,0,0,0,0,0,0,NA,FALSE,1
"275","control","start_with_long_delay"," test",4,"short",2,4,3,4,0.65,0.55," right",2,0.35,0.45,0.55,0.65,"rewarded",1,33,1,6,0.5,1,"3f5MYPfx",0.721115799999097,1,"unrewarded","unrewarded","rewarded",TRUE,1,0.1,1,3,4,4,1,3,0,0,0,1,0,0,0,1,0,0,0,1,1,0,1,0,1,0,1,FALSE,0
"276","control","start_with_long_delay"," test",4,"short",3,4,3,4,0.65,0.55," right",2,0.35,0.45,0.55,0.65,"rewarded",2,34,1,6,0.5,1,"3f5MYPfx",1.16897349999635,1,"rewarded","unrewarded","unrewarded",TRUE,1,0.1,1,3,4,4,1,3,0,0,0,2,0,0,0,2,0,0,0,1,2,0,2,0,1,0,1,FALSE,0
"277","control","start_with_long_delay"," test",4,"short",4,3,1,1,0.55,0.35," left",1,0.35,0.45,0.55,0.65,"rewarded",3,35,1,6,0.5,1,"3f5MYPfx",0.397252099995967,0,"rewarded","rewarded","unrewarded",FALSE,0,0.2,1,3,1,3,0,3,0,0,1,2,0,0,1,2,0,0,1,1,1,0,1,0,1,0,1,FALSE,0
"278","control","start_with_long_delay"," test",4,"short",5,3,2,2,0.55,0.45," left",1,0.35,0.45,0.55,0.65,"rewarded",4,36,1,6,0.5,1,"3f5MYPfx",0.382969199999934,1,"rewarded","rewarded","rewarded",TRUE,1,0.1,1,3,2,3,0,3,0,0,2,2,0,0,2,2,0,0,1,1,2,0,2,0,1,0,1,FALSE,0
"279","control","start_with_long_delay"," test",4,"short",6,4,1,4,0.65,0.35," right",2,0.35,0.45,0.55,0.65,"rewarded",5,37,1,6,0.5,1,"3f5MYPfx",0.632150300007197,0,"rewarded","rewarded","rewarded",FALSE,0,0.3,1,1,4,4,1,1,0,0,2,3,0,0,2,3,0,0,1,1,3,0,3,0,1,0,1,FALSE,0
"280","control","start_with_long_delay"," test",4,"short",7,2,1,1,0.45,0.35," left",1,0.35,0.45,0.55,0.65,"unrewarded",5,37,1,6,0.5,1,"3f5MYPfx",0.806784399988828,0,"rewarded","rewarded","rewarded",FALSE,0,0.1,1,2,1,2,0,2,0,0,2,3,0,1,2,3,0,0,1,1,0,0,1,0,0,0,NA,FALSE,0
"281","control","start_with_long_delay"," test",4,"short",8,1,4,4,0.35,0.65," left",1,0.35,0.45,0.55,0.65,"unrewarded",5,37,1,6,0.5,1,"3f5MYPfx",0.994869799993467,0,"unrewarded","rewarded","rewarded",FALSE,1,0.3,0,1,4,1,0,1,0,0,2,3,1,1,2,3,0,0,1,1,0,3,1,3,0,1,0,FALSE,0
"282","control","start_with_long_delay"," test",4,"short",9,3,2,3,0.55,0.45," right",2,0.35,0.45,0.55,0.65,"rewarded",6,38,1,6,0.5,1,"3f5MYPfx",0.516458500002045,0,"unrewarded","unrewarded","rewarded",FALSE,0,0.1,1,2,3,3,1,2,0,0,3,3,1,1,3,3,0,0,1,1,3,0,3,1,1,0,1,FALSE,0
"283","control","start_with_long_delay"," test",4,"short",10,4,3,3,0.65,0.55," left",1,0.35,0.45,0.55,0.65,"rewarded",7,39,1,6,0.5,1,"3f5MYPfx",0.311585999996169,0,"rewarded","unrewarded","unrewarded",TRUE,0,0.1,1,4,3,4,0,4,0,0,3,4,1,1,3,4,0,0,1,1,4,3,4,3,1,1,0,FALSE,0
"284","control","start_with_long_delay"," test",4,"short",11,4,3,3,0.65,0.55," left",1,0.35,0.45,0.55,0.65,"rewarded",8,40,1,6,0.5,1,"3f5MYPfx",0.335718699992867,1,"rewarded","rewarded","unrewarded",TRUE,1,0.1,1,4,3,4,0,4,0,0,3,5,1,1,3,5,0,0,1,1,5,3,5,3,1,1,0,FALSE,0
"285","control","start_with_long_delay"," test",4,"short",12,4,1,4,0.65,0.35," right",2,0.35,0.45,0.55,0.65,"unrewarded",8,40,1,6,0.5,1,"3f5MYPfx",0.391412099997979,1,"rewarded","rewarded","rewarded",TRUE,0,0.3,1,1,4,4,1,1,0,0,3,5,1,1,3,6,0,0,1,0.833333333333333,5,0,6,1,0.833333333333333,0,1,FALSE,0
"286","control","start_with_long_delay"," test",4,"short",13,3,2,2,0.55,0.45," left",1,0.35,0.45,0.55,0.65,"rewarded",9,41,1,6,0.5,1,"3f5MYPfx",0.507852000009734,0,"unrewarded","rewarded","rewarded",FALSE,0,0.1,1,3,2,3,0,3,0,0,4,5,1,1,4,6,0,0,1,0.833333333333333,4,0,4,1,1,0,1,FALSE,0
"287","control","start_with_long_delay"," test",4,"short",14,3,2,2,0.55,0.45," left",1,0.35,0.45,0.55,0.65,"unrewarded",9,41,1,6,0.5,1,"3f5MYPfx",0.377390599998762,1,"rewarded","unrewarded","rewarded",TRUE,1,0.1,1,3,2,3,0,3,0,0,4,5,1,1,5,6,0,0,0.8,0.833333333333333,4,0,5,1,0.8,0,1,FALSE,0
"288","control","start_with_long_delay"," test",4,"short",15,3,4,3,0.55,0.65," right",2,0.35,0.45,0.55,0.65,"rewarded",10,42,1,6,0.5,1,"3f5MYPfx",0.446594199995161,1,"unrewarded","rewarded","unrewarded",TRUE,0,0.1,0,4,3,3,1,4,0,0,5,5,1,1,6,6,0,0,0.833333333333333,0.833333333333333,5,5,6,6,0.833333333333333,0.833333333333333,0,FALSE,0
"289","control","start_with_long_delay"," test",4,"short",16,4,1,4,0.65,0.35," right",2,0.35,0.45,0.55,0.65,"unrewarded",10,42,1,6,0.5,1,"3f5MYPfx",0.436229200000525,0,"rewarded","unrewarded","rewarded",FALSE,1,0.3,1,1,4,4,1,1,0,0,5,5,1,1,6,7,0,0,0.833333333333333,0.714285714285714,5,0,7,1,0.714285714285714,0,1,FALSE,0
"290","control","start_with_long_delay"," test",4,"short",17,2,1,1,0.45,0.35," left",1,0.35,0.45,0.55,0.65,"rewarded",11,43,1,6,0.5,1,"3f5MYPfx",0.576084799991804,0,"unrewarded","rewarded","unrewarded",FALSE,0,0.1,1,2,1,2,0,2,0,1,5,5,1,2,6,7,0,0.5,0.833333333333333,0.714285714285714,1,0,2,1,0.5,0,1,FALSE,0
"291","control","start_with_long_delay"," test",4,"short",18,2,1,1,0.45,0.35," left",1,0.35,0.45,0.55,0.65,"unrewarded",11,43,1,6,0.5,1,"3f5MYPfx",0.726030899997568,1,"rewarded","unrewarded","rewarded",TRUE,1,0.1,1,2,1,2,0,2,0,1,5,5,1,3,6,7,0,0.333333333333333,0.833333333333333,0.714285714285714,1,0,3,1,0.333333333333333,0,1,FALSE,0
"292","control","start_with_long_delay"," test",4,"short",19,4,2,2,0.65,0.45," left",1,0.35,0.45,0.55,0.65,"unrewarded",11,43,1,6,0.5,1,"3f5MYPfx",0.58449200000905,0,"unrewarded","rewarded","unrewarded",TRUE,1,0.2,1,4,2,4,0,4,0,1,5,5,1,3,6,8,0,0.333333333333333,0.833333333333333,0.625,5,1,8,3,0.625,0.333333333333333,1,FALSE,0
"293","control","start_with_long_delay"," test",4,"short",20,4,2,4,0.65,0.45," right",2,0.35,0.45,0.55,0.65,"rewarded",12,44,1,6,0.5,1,"3f5MYPfx",0.382185400012531,1,"unrewarded","unrewarded","rewarded",TRUE,0,0.2,1,2,4,4,1,2,0,1,5,6,1,3,6,9,0,0.333333333333333,0.833333333333333,0.666666666666667,6,1,9,3,0.666666666666667,0.333333333333333,1,FALSE,0
"294","control","start_with_long_delay"," test",4,"short",21,3,2,3,0.55,0.45," right",2,0.35,0.45,0.55,0.65,"rewarded",13,45,1,6,0.5,1,"3f5MYPfx",0.475753399994574,0,"rewarded","unrewarded","unrewarded",FALSE,1,0.1,1,2,3,3,1,2,0,1,6,6,1,3,7,9,0,0.333333333333333,0.857142857142857,0.666666666666667,6,1,7,3,0.857142857142857,0.333333333333333,1,FALSE,0
"295","control","start_with_long_delay"," test",4,"short",22,3,1,1,0.55,0.35," left",1,0.35,0.45,0.55,0.65,"unrewarded",13,45,1,6,0.5,1,"3f5MYPfx",0.40043439999863,1,"rewarded","rewarded","unrewarded",TRUE,0,0.2,1,3,1,3,0,3,0,1,6,6,1,3,8,9,0,0.333333333333333,0.75,0.666666666666667,6,0,8,1,0.75,0,1,FALSE,0
"296","control","start_with_long_delay"," test",4,"short",23,4,2,4,0.65,0.45," right",2,0.35,0.45,0.55,0.65,"unrewarded",13,45,1,6,0.5,1,"3f5MYPfx",0.352524999994785,0,"unrewarded","rewarded","rewarded",FALSE,0,0.2,1,2,4,4,1,2,0,1,6,6,1,3,8,10,0,0.333333333333333,0.75,0.6,6,1,10,3,0.6,0.333333333333333,1,FALSE,0
"297","control","start_with_long_delay"," test",4,"short",24,3,4,3,0.55,0.65," right",2,0.35,0.45,0.55,0.65,"unrewarded",13,45,1,6,0.5,1,"3f5MYPfx",0.375541300003533,0,"unrewarded","unrewarded","rewarded",TRUE,1,0.1,0,4,3,3,1,4,0,1,6,6,1,3,9,10,0,0.333333333333333,0.666666666666667,0.6,6,6,9,10,0.666666666666667,0.6,1,FALSE,0
"298","control","start_with_long_delay"," test",4,"short",25,3,2,3,0.55,0.45," right",2,0.35,0.45,0.55,0.65,"rewarded",14,46,1,6,0.5,1,"3f5MYPfx",0.399863800004823,1,"unrewarded","unrewarded","unrewarded",TRUE,1,0.1,1,2,3,3,1,2,0,1,7,6,1,3,10,10,0,0.333333333333333,0.7,0.6,7,1,10,3,0.7,0.333333333333333,1,FALSE,0
"299","control","start_with_long_delay"," test",5,"long",1,3,1,3,0.55,0.35," right",2,0.35,0.45,0.55,0.65,"rewarded",1,47,1,6,0.5,1,"3f5MYPfx",0.322283300003619,1,"rewarded","unrewarded","unrewarded",TRUE,1,0.2,1,1,3,3,1,1,0,0,0,0,0,0,0,0,0,0,0,0,0,0,0,0,0,0,NA,FALSE,1
"300","control","start_with_long_delay"," test",5,"long",2,1,2,1,0.35,0.45," right",2,0.35,0.45,0.55,0.65,"unrewarded",1,47,1,6,0.5,1,"3f5MYPfx",0.622247499995865,0,"rewarded","rewarded","unrewarded",FALSE,1,0.1,0,2,1,1,1,2,0,0,0,0,1,0,0,0,0,0,0,0,0,0,1,0,0,0,NA,FALSE,0
"301","control","start_with_long_delay"," test",5,"long",3,3,1,3,0.55,0.35," right",2,0.35,0.45,0.55,0.65,"rewarded",2,48,1,6,0.5,1,"3f5MYPfx",0.591404400009196,0,"unrewarded","rewarded","rewarded",TRUE,1,0.2,1,1,3,3,1,1,0,0,1,0,1,0,1,0,0,0,1,0,1,0,1,1,1,0,1,FALSE,0
"302","control","start_with_long_delay"," test",5,"long",4,1,2,2,0.35,0.45," left",1,0.35,0.45,0.55,0.65,"unrewarded",2,48,1,6,0.5,1,"3f5MYPfx",0.789494099997682,0,"rewarded","unrewarded","rewarded",FALSE,0,0.1,0,1,2,1,0,1,0,0,1,0,2,0,1,0,0,0,1,0,0,0,2,0,0,0,NA,FALSE,0
"303","control","start_with_long_delay"," test",5,"long",5,3,2,2,0.55,0.45," left",1,0.35,0.45,0.55,0.65,"rewarded",3,49,1,6,0.5,1,"3f5MYPfx",0.491054700003588,0,"unrewarded","rewarded","unrewarded",FALSE,1,0.1,1,3,2,3,0,3,0,0,2,0,2,0,2,0,0,0,1,0,2,0,2,0,1,0,1,FALSE,0
"304","control","start_with_long_delay"," test",5,"long",6,3,2,3,0.55,0.45," right",2,0.35,0.45,0.55,0.65,"rewarded",4,50,1,6,0.5,1,"3f5MYPfx",0.815471699999762,1,"rewarded","unrewarded","rewarded",TRUE,0,0.1,1,2,3,3,1,2,0,0,3,0,2,0,3,0,0,0,1,0,3,0,3,0,1,0,1,FALSE,0
"305","control","start_with_long_delay"," test",5,"long",7,2,3,3,0.45,0.55," left",1,0.35,0.45,0.55,0.65,"unrewarded",4,50,1,6,0.5,1,"3f5MYPfx",0.647465899994131,0,"rewarded","rewarded","unrewarded",TRUE,0,0.1,0,2,3,2,0,2,0,0,3,0,2,1,3,0,0,0,1,0,0,3,1,3,0,1,0,FALSE,0
"306","control","start_with_long_delay"," test",5,"long",8,3,1,3,0.55,0.35," right",2,0.35,0.45,0.55,0.65,"rewarded",5,51,1,6,0.5,1,"3f5MYPfx",0.574456699992879,0,"unrewarded","rewarded","rewarded",FALSE,0,0.2,1,1,3,3,1,1,0,0,4,0,2,1,4,0,0,0,1,0,4,0,4,2,1,0,1,FALSE,0
"307","control","start_with_long_delay"," test",5,"long",9,3,2,3,0.55,0.45," right",2,0.35,0.45,0.55,0.65,"unrewarded",5,51,1,6,0.5,1,"3f5MYPfx",0.711561700009042,1,"rewarded","unrewarded","rewarded",TRUE,1,0.1,1,2,3,3,1,2,0,0,4,0,2,1,5,0,0,0,0.8,0,4,0,5,1,0.8,0,1,FALSE,0
"308","control","start_with_long_delay"," test",5,"long",10,4,2,4,0.65,0.45," right",2,0.35,0.45,0.55,0.65,"rewarded",6,52,1,6,0.5,1,"3f5MYPfx",1.05874520000361,0,"unrewarded","rewarded","unrewarded",FALSE,1,0.2,1,2,4,4,1,2,0,0,4,1,2,1,5,1,0,0,0.8,1,1,0,1,1,1,0,1,FALSE,0
"309","control","start_with_long_delay"," test",5,"long",11,4,2,4,0.65,0.45," right",2,0.35,0.45,0.55,0.65,"rewarded",7,53,1,6,0.5,1,"3f5MYPfx",0.460846699992544,1,"rewarded","unrewarded","rewarded",TRUE,1,0.2,1,2,4,4,1,2,0,0,4,2,2,1,5,2,0,0,0.8,1,2,0,2,1,1,0,1,FALSE,0
"310","control","start_with_long_delay"," test",5,"long",12,4,1,1,0.65,0.35," left",1,0.35,0.45,0.55,0.65,"rewarded",8,54,1,6,0.5,1,"3f5MYPfx",0.408580400006031,1,"rewarded","rewarded","unrewarded",TRUE,0,0.3,1,4,1,4,0,4,0,0,4,3,2,1,5,3,0,0,0.8,1,3,0,3,2,1,0,1,FALSE,0
"311","control","start_with_long_delay"," test",5,"long",13,4,2,4,0.65,0.45," right",2,0.35,0.45,0.55,0.65,"rewarded",9,55,1,6,0.5,1,"3f5MYPfx",0.347071500000311,1,"rewarded","rewarded","rewarded",TRUE,0,0.2,1,2,4,4,1,2,0,0,4,4,2,1,5,4,0,0,0.8,1,4,0,4,1,1,0,1,FALSE,0
"312","control","start_with_long_delay"," test",5,"long",14,3,4,4,0.55,0.65," left",1,0.35,0.45,0.55,0.65,"rewarded",10,56,1,6,0.5,1,"3f5MYPfx",0.405236000005971,0,"rewarded","rewarded","rewarded",TRUE,0,0.1,0,3,4,3,0,3,0,0,5,4,2,1,6,4,0,0,0.833333333333333,1,5,4,6,4,0.833333333333333,1,0,FALSE,0
"313","control","start_with_long_delay"," test",5,"long",15,3,2,3,0.55,0.45," right",2,0.35,0.45,0.55,0.65,"unrewarded",10,56,1,6,0.5,1,"3f5MYPfx",0.455345499998657,1,"rewarded","rewarded","rewarded",TRUE,0,0.1,1,2,3,3,1,2,0,0,5,4,2,1,7,4,0,0,0.714285714285714,1,5,0,7,1,0.714285714285714,0,1,FALSE,0
"314","control","start_with_long_delay"," test",5,"long",16,4,1,4,0.65,0.35," right",2,0.35,0.45,0.55,0.65,"unrewarded",10,56,1,6,0.5,1,"3f5MYPfx",0.344620499992743,0,"unrewarded","rewarded","rewarded",FALSE,1,0.3,1,1,4,4,1,1,0,0,5,4,2,1,7,5,0,0,0.714285714285714,0.8,4,0,5,2,0.8,0,1,FALSE,0
"315","control","start_with_long_delay"," test",5,"long",17,3,4,3,0.55,0.65," right",2,0.35,0.45,0.55,0.65,"rewarded",11,57,1,6,0.5,1,"3f5MYPfx",0.447348899993813,0,"unrewarded","unrewarded","rewarded",TRUE,1,0.1,0,4,3,3,1,4,0,0,6,4,2,1,8,5,0,0,0.75,0.8,6,4,8,5,0.75,0.8,0,FALSE,0
"316","control","start_with_long_delay"," test",5,"long",18,4,2,2,0.65,0.45," left",1,0.35,0.45,0.55,0.65,"rewarded",12,58,1,6,0.5,1,"3f5MYPfx",0.458672900000238,0,"rewarded","unrewarded","unrewarded",FALSE,0,0.2,1,4,2,4,0,4,0,0,6,5,2,1,8,6,0,0,0.75,0.833333333333333,5,0,6,1,0.833333333333333,0,1,FALSE,0
"317","control","start_with_long_delay"," test",5,"long",19,4,2,2,0.65,0.45," left",1,0.35,0.45,0.55,0.65,"rewarded",13,59,1,6,0.5,1,"3f5MYPfx",0.364433800001279,1,"rewarded","rewarded","unrewarded",TRUE,1,0.2,1,4,2,4,0,4,0,0,6,6,2,1,8,7,0,0,0.75,0.857142857142857,6,0,7,1,0.857142857142857,0,1,FALSE,0
"318","control","start_with_long_delay"," test",5,"long",20,4,3,3,0.65,0.55," left",1,0.35,0.45,0.55,0.65,"unrewarded",13,59,1,6,0.5,1,"3f5MYPfx",0.310126299998956,1,"rewarded","rewarded","rewarded",TRUE,1,0.1,1,4,3,4,0,4,0,0,6,6,2,1,8,8,0,0,0.75,0.75,6,6,8,8,0.75,0.75,0,FALSE,0
"319","control","start_with_long_delay"," test",5,"long",21,3,4,4,0.55,0.65," left",1,0.35,0.45,0.55,0.65,"unrewarded",13,59,1,6,0.5,1,"3f5MYPfx",0.34276790000149,0,"unrewarded","rewarded","rewarded",TRUE,1,0.1,0,3,4,3,0,3,0,0,6,6,2,1,9,8,0,0,0.666666666666667,0.75,6,6,9,8,0.666666666666667,0.75,0,FALSE,0
"320","control","start_with_long_delay"," test",5,"long",22,4,1,1,0.65,0.35," left",1,0.35,0.45,0.55,0.65,"rewarded",14,60,1,6,0.5,1,"3f5MYPfx",0.350151799997548,0,"unrewarded","unrewarded","rewarded",FALSE,1,0.3,1,4,1,4,0,4,0,0,6,7,2,1,9,9,0,0,0.666666666666667,0.777777777777778,7,0,9,2,0.777777777777778,0,1,FALSE,0
"321","control","start_with_long_delay"," test",5,"long",23,1,2,1,0.35,0.45," right",2,0.35,0.45,0.55,0.65,"unrewarded",14,60,1,6,0.5,1,"3f5MYPfx",0.579653599997982,0,"rewarded","unrewarded","unrewarded",FALSE,0,0.1,0,2,1,1,1,2,0,0,6,7,3,1,9,9,0,0,0.666666666666667,0.777777777777778,0,0,3,1,0,0,NA,FALSE,0
"322","control","start_with_long_delay"," test",5,"long",24,4,2,2,0.65,0.45," left",1,0.35,0.45,0.55,0.65,"rewarded",15,61,1,6,0.5,1,"3f5MYPfx",0.598198300009244,0,"unrewarded","rewarded","unrewarded",FALSE,0,0.2,1,4,2,4,0,4,0,0,6,8,3,1,9,10,0,0,0.666666666666667,0.8,8,0,10,1,0.8,0,1,FALSE,0
"323","control","start_with_long_delay"," test",5,"long",25,4,3,4,0.65,0.55," right",2,0.35,0.45,0.55,0.65,"unrewarded",15,61,1,6,0.5,1,"3f5MYPfx",0.562111200008076,1,"rewarded","unrewarded","rewarded",TRUE,0,0.1,1,3,4,4,1,3,0,0,6,8,3,1,9,11,0,0,0.666666666666667,0.727272727272727,8,6,11,9,0.727272727272727,0.666666666666667,1,FALSE,0
"324","control","start_with_long_delay"," test",6,"short",1,1,4,4,0.35,0.65," left",1,0.35,0.45,0.55,0.65,"unrewarded",0,61,1,6,0.5,1,"3f5MYPfx",1.32378069999686,0,"unrewarded","rewarded","unrewarded",TRUE,0,0.3,0,1,4,1,0,1,0,0,0,0,0,0,0,0,0,0,0,0,0,0,0,0,0,0,NA,FALSE,1
"325","control","start_with_long_delay"," test",6,"short",2,1,4,1,0.35,0.65," right",2,0.35,0.45,0.55,0.65,"rewarded",1,62,1,6,0.5,1,"3f5MYPfx",0.334780500008492,1,"unrewarded","unrewarded","rewarded",TRUE,0,0.3,0,4,1,1,1,4,1,0,0,0,1,0,0,0,1,0,0,0,1,0,1,0,1,0,1,FALSE,0
"326","control","start_with_long_delay"," test",6,"short",3,1,2,2,0.35,0.45," left",1,0.35,0.45,0.55,0.65,"rewarded",2,63,1,6,0.5,1,"3f5MYPfx",0.310279199999059,1,"rewarded","unrewarded","unrewarded",TRUE,0,0.1,0,1,2,1,0,1,2,0,0,0,2,0,0,0,1,0,0,0,2,0,2,0,1,0,1,FALSE,0
"327","control","start_with_long_delay"," test",6,"short",4,4,3,3,0.65,0.55," left",1,0.35,0.45,0.55,0.65,"unrewarded",2,63,1,6,0.5,1,"3f5MYPfx",0.535107299991068,0,"rewarded","rewarded","unrewarded",FALSE,1,0.1,1,4,3,4,0,4,2,0,0,0,2,0,0,1,1,0,0,0,0,0,1,0,0,0,NA,FALSE,0
"328","control","start_with_long_delay"," test",6,"short",5,4,2,4,0.65,0.45," right",2,0.35,0.45,0.55,0.65,"rewarded",3,64,1,6,0.5,1,"3f5MYPfx",0.269503599993186,1,"unrewarded","rewarded","rewarded",TRUE,0,0.2,1,2,4,4,1,2,2,0,0,1,2,0,0,2,1,0,0,0.5,1,0,2,0,0.5,0,1,FALSE,0
"329","control","start_with_long_delay"," test",6,"short",6,1,3,1,0.35,0.55," right",2,0.35,0.45,0.55,0.65,"unrewarded",3,64,1,6,0.5,1,"3f5MYPfx",0.500391499997932,0,"rewarded","unrewarded","rewarded",FALSE,1,0.2,0,3,1,1,1,3,2,0,0,1,3,0,0,2,0.666666666666667,0,0,0.5,2,0,3,0,0.666666666666667,0,1,FALSE,0
"330","control","start_with_long_delay"," test",6,"short",7,1,3,3,0.35,0.55," left",1,0.35,0.45,0.55,0.65,"unrewarded",3,64,1,6,0.5,1,"3f5MYPfx",0.35785770000075,1,"unrewarded","rewarded","unrewarded",TRUE,0,0.2,0,1,3,1,0,1,2,0,0,1,4,0,0,2,0.5,0,0,0.5,2,0,4,0,0.5,0,1,FALSE,0
"331","control","start_with_long_delay"," test",6,"short",8,1,4,4,0.35,0.65," left",1,0.35,0.45,0.55,0.65,"unrewarded",3,64,1,6,0.5,1,"3f5MYPfx",0.307051499999943,1,"unrewarded","unrewarded","rewarded",TRUE,1,0.3,0,1,4,1,0,1,2,0,0,1,5,0,0,2,0.4,0,0,0.5,2,1,5,2,0.4,0.5,0,FALSE,0
"332","control","start_with_long_delay"," test",6,"short",9,4,1,4,0.65,0.35," right",2,0.35,0.45,0.55,0.65,"unrewarded",3,64,1,6,0.5,1,"3f5MYPfx",0.311941599997226,0,"unrewarded","unrewarded","unrewarded",TRUE,0,0.3,1,1,4,4,1,1,2,0,0,1,5,0,0,3,0.4,0,0,0.333333333333333,1,2,3,5,0.333333333333333,0.4,0,FALSE,0
"333","control","start_with_long_delay"," test",6,"short",10,4,3,3,0.65,0.55," left",1,0.35,0.45,0.55,0.65,"rewarded",4,65,1,6,0.5,1,"3f5MYPfx",0.335748999990756,1,"unrewarded","unrewarded","unrewarded",TRUE,0,0.1,1,4,3,4,0,4,2,0,0,2,5,0,0,4,0.4,0,0,0.5,2,0,4,0,0.5,0,1,FALSE,0
"334","control","start_with_long_delay"," test",6,"short",11,4,1,4,0.65,0.35," right",2,0.35,0.45,0.55,0.65,"rewarded",5,66,1,6,0.5,1,"3f5MYPfx",0.334893499995815,1,"rewarded","unrewarded","unrewarded",TRUE,0,0.3,1,1,4,4,1,1,2,0,0,3,5,0,0,5,0.4,0,0,0.6,3,2,5,5,0.6,0.4,1,FALSE,0
"335","control","start_with_long_delay"," test",6,"short",12,4,1,4,0.65,0.35," right",2,0.35,0.45,0.55,0.65,"rewarded",6,67,1,6,0.5,1,"3f5MYPfx",0.373123500001384,1,"rewarded","rewarded","unrewarded",TRUE,1,0.3,1,1,4,4,1,1,2,0,0,4,5,0,0,6,0.4,0,0,0.666666666666667,4,2,6,5,0.666666666666667,0.4,1,FALSE,0
"336","control","start_with_long_delay"," test",6,"short",13,3,1,1,0.55,0.35," left",1,0.35,0.45,0.55,0.65,"rewarded",7,68,1,6,0.5,1,"3f5MYPfx",0.651697499997681,0,"rewarded","rewarded","rewarded",FALSE,0,0.2,1,3,1,3,0,3,2,0,1,4,5,0,1,6,0.4,0,1,0.666666666666667,1,2,1,5,1,0.4,1,FALSE,0
"337","control","start_with_long_delay"," test",6,"short",14,4,1,4,0.65,0.35," right",2,0.35,0.45,0.55,0.65,"rewarded",8,69,1,6,0.5,1,"3f5MYPfx",0.437756699990132,0,"rewarded","rewarded","rewarded",FALSE,0,0.3,1,1,4,4,1,1,2,0,1,5,5,0,1,7,0.4,0,1,0.714285714285714,5,2,7,5,0.714285714285714,0.4,1,FALSE,0
"338","control","start_with_long_delay"," test",6,"short",15,3,4,4,0.55,0.65," left",1,0.35,0.45,0.55,0.65,"unrewarded",8,69,1,6,0.5,1,"3f5MYPfx",1.05988369999977,0,"rewarded","rewarded","rewarded",TRUE,0,0.1,0,3,4,3,0,3,2,0,1,5,5,0,2,7,0.4,0,0.5,0.714285714285714,1,5,2,7,0.5,0.714285714285714,0,FALSE,0
"339","control","start_with_long_delay"," test",6,"short",16,2,1,1,0.45,0.35," left",1,0.35,0.45,0.55,0.65,"unrewarded",8,69,1,6,0.5,1,"3f5MYPfx",0.603050299992901,0,"unrewarded","rewarded","rewarded",FALSE,1,0.1,1,2,1,2,0,2,2,0,1,5,5,1,2,7,0.4,0,0.5,0.714285714285714,0,2,1,5,0,0.4,0,FALSE,0
"340","control","start_with_long_delay"," test",6,"short",17,4,1,4,0.65,0.35," right",2,0.35,0.45,0.55,0.65,"rewarded",9,70,1,6,0.5,1,"3f5MYPfx",0.405213899997761,0,"unrewarded","unrewarded","rewarded",FALSE,0,0.3,1,1,4,4,1,1,2,0,1,6,5,1,2,8,0.4,0,0.5,0.75,6,2,8,5,0.75,0.4,1,FALSE,0
"341","control","start_with_long_delay"," test",6,"short",18,4,2,4,0.65,0.45," right",2,0.35,0.45,0.55,0.65,"unrewarded",9,70,1,6,0.5,1,"3f5MYPfx",0.317520500000683,1,"rewarded","unrewarded","unrewarded",TRUE,1,0.2,1,2,4,4,1,2,2,0,1,6,5,1,2,9,0.4,0,0.5,0.666666666666667,6,0,9,1,0.666666666666667,0,1,FALSE,0
