"group","counterbalance","block_type","block","delay_condition","trial","chosen","unchosen","offer_left_image","offer_right_image","exp_value_chosen","exp_value_unchosen","choice_location","choice_key","exp_value1","exp_value2","exp_value3","exp_value4","reward","coins_per_block","coins_per_task","ITI_duration","rt_deadline","choice_feedback_duration","outcome_duration","subject","rt"
"ADHD","start_with_long_delay"," practice",1,1,1,2,4,4,2,0.45,0.65," right",2,0.35,0.45,0.55,0.65,1,1,1,1,6,0.5,1,"0DKx3BNQ",2.03049620008096
"ADHD","start_with_long_delay"," practice",1,1,2,3,1,3,1,0.55,0.35," left",1,0.35,0.45,0.55,0.65,1,2,2,1,6,0.5,1,"0DKx3BNQ",1.47381740016863
"ADHD","start_with_long_delay"," practice",1,1,3,4,2,2,4,0.65,0.45," right",2,0.35,0.45,0.55,0.65,1,3,3,1,6,0.5,1,"0DKx3BNQ",1.14275350002572
"ADHD","start_with_long_delay"," practice",1,1,4,3,2,2,3,0.55,0.45," right",2,0.35,0.45,0.55,0.65,1,4,4,1,6,0.5,1,"0DKx3BNQ",1.44236599979922
"ADHD","start_with_long_delay"," practice",1,1,5,2,1,1,2,0.45,0.35," right",2,0.35,0.45,0.55,0.65,0,4,4,1,6,0.5,1,"0DKx3BNQ",1.94575740001164
"ADHD","start_with_long_delay"," test",1,7,1,1,2,1,2,0.35,0.45," left",1,0.35,0.45,0.55,0.65,0,0,4,1,6,0.5,1,"0DKx3BNQ",0.139738099882379
"ADHD","start_with_long_delay"," test",1,7,2,1,4,4,1,0.35,0.65," right",2,0.35,0.45,0.55,0.65,0,0,4,1,6,0.5,1,"0DKx3BNQ",1.63120379997417
"ADHD","start_with_long_delay"," test",1,7,3,3,4,3,4,0.55,0.65," left",1,0.35,0.45,0.55,0.65,1,1,5,1,6,0.5,1,"0DKx3BNQ",1.78134479979053
"ADHD","start_with_long_delay"," test",1,7,4,1,4,4,1,0.35,0.65," right",2,0.35,0.45,0.55,0.65,0,1,5,1,6,0.5,1,"0DKx3BNQ",1.87981699989177
"ADHD","start_with_long_delay"," test",1,7,5,1,4,1,4,0.35,0.65," left",1,0.35,0.45,0.55,0.65,0,1,5,1,6,0.5,1,"0DKx3BNQ",1.15227710013278
"ADHD","start_with_long_delay"," test",1,7,6,4,1,4,1,0.65,0.35," left",1,0.35,0.45,0.55,0.65,1,2,6,1,6,0.5,1,"0DKx3BNQ",1.42336850007996
"ADHD","start_with_long_delay"," test",1,7,7,3,1,3,1,0.55,0.35," left",1,0.35,0.45,0.55,0.65,1,3,7,1,6,0.5,1,"0DKx3BNQ",1.29564599995501
"ADHD","start_with_long_delay"," test",1,7,8,3,4,4,3,0.55,0.65," right",2,0.35,0.45,0.55,0.65,1,4,8,1,6,0.5,1,"0DKx3BNQ",1.040378900012
"ADHD","start_with_long_delay"," test",1,7,9,3,4,4,3,0.55,0.65," right",2,0.35,0.45,0.55,0.65,1,5,9,1,6,0.5,1,"0DKx3BNQ",0.903806300135329
"ADHD","start_with_long_delay"," test",1,7,10,2,4,2,4,0.45,0.65," left",1,0.35,0.45,0.55,0.65,0,5,9,1,6,0.5,1,"0DKx3BNQ",0.87246589991264
"ADHD","start_with_long_delay"," test",1,7,11,2,3,2,3,0.45,0.55," left",1,0.35,0.45,0.55,0.65,0,5,9,1,6,0.5,1,"0DKx3BNQ",1.75470370007679
"ADHD","start_with_long_delay"," test",1,7,12,3,1,3,1,0.55,0.35," left",1,0.35,0.45,0.55,0.65,0,5,9,1,6,0.5,1,"0DKx3BNQ",1.30906100012362
"ADHD","start_with_long_delay"," test",1,7,13,3,2,2,3,0.55,0.45," right",2,0.35,0.45,0.55,0.65,1,6,10,1,6,0.5,1,"0DKx3BNQ",0.5203249999322
"ADHD","start_with_long_delay"," test",1,7,14,3,4,4,3,0.55,0.65," right",2,0.35,0.45,0.55,0.65,0,6,10,1,6,0.5,1,"0DKx3BNQ",0.421761199831963
"ADHD","start_with_long_delay"," test",1,7,15,3,2,3,2,0.55,0.45," left",1,0.35,0.45,0.55,0.65,1,7,11,1,6,0.5,1,"0DKx3BNQ",0.889571400126442
"ADHD","start_with_long_delay"," test",1,7,16,3,2,3,2,0.55,0.45," left",1,0.35,0.45,0.55,0.65,0,7,11,1,6,0.5,1,"0DKx3BNQ",0.662953400053084
"ADHD","start_with_long_delay"," test",1,7,17,2,3,3,2,0.45,0.55," right",2,0.35,0.45,0.55,0.65,0,7,11,1,6,0.5,1,"0DKx3BNQ",1.79910729988478
"ADHD","start_with_long_delay"," test",1,7,18,4,1,4,1,0.65,0.35," left",1,0.35,0.45,0.55,0.65,0,7,11,1,6,0.5,1,"0DKx3BNQ",1.20441439980641
"ADHD","start_with_long_delay"," test",1,7,19,3,2,2,3,0.55,0.45," right",2,0.35,0.45,0.55,0.65,1,8,12,1,6,0.5,1,"0DKx3BNQ",1.21572580002248
"ADHD","start_with_long_delay"," test",1,7,20,3,1,3,1,0.55,0.35," left",1,0.35,0.45,0.55,0.65,1,9,13,1,6,0.5,1,"0DKx3BNQ",0.748560500098392
"ADHD","start_with_long_delay"," test",1,7,21,4,1,4,1,0.65,0.35," left",1,0.35,0.45,0.55,0.65,0,9,13,1,6,0.5,1,"0DKx3BNQ",0.902401600033045
"ADHD","start_with_long_delay"," test",1,7,22,4,1,4,1,0.65,0.35," left",1,0.35,0.45,0.55,0.65,1,10,14,1,6,0.5,1,"0DKx3BNQ",0.564157899934798
"ADHD","start_with_long_delay"," test",1,7,23,3,2,3,2,0.55,0.45," left",1,0.35,0.45,0.55,0.65,0,10,14,1,6,0.5,1,"0DKx3BNQ",0.584349000127986
"ADHD","start_with_long_delay"," test",1,7,24,3,1,3,1,0.55,0.35," left",1,0.35,0.45,0.55,0.65,1,11,15,1,6,0.5,1,"0DKx3BNQ",0.629672199953347
"ADHD","start_with_long_delay"," test",1,7,25,3,2,3,2,0.55,0.45," left",1,0.35,0.45,0.55,0.65,0,11,15,1,6,0.5,1,"0DKx3BNQ",0.352905200095847
"ADHD","start_with_long_delay"," test",2,1,1,1,3,1,3,0.35,0.55," left",1,0.35,0.45,0.55,0.65,0,0,15,1,6,0.5,1,"0DKx3BNQ",0.610401699785143
"ADHD","start_with_long_delay"," test",2,1,2,3,2,3,2,0.55,0.45," left",1,0.35,0.45,0.55,0.65,1,1,16,1,6,0.5,1,"0DKx3BNQ",0.770897200098261
"ADHD","start_with_long_delay"," test",2,1,3,3,2,2,3,0.55,0.45," right",2,0.35,0.45,0.55,0.65,1,2,17,1,6,0.5,1,"0DKx3BNQ",0.85696900007315
"ADHD","start_with_long_delay"," test",2,1,4,4,1,4,1,0.65,0.35," left",1,0.35,0.45,0.55,0.65,0,2,17,1,6,0.5,1,"0DKx3BNQ",1.13569499994628
"ADHD","start_with_long_delay"," test",2,1,5,3,4,3,4,0.55,0.65," left",1,0.35,0.45,0.55,0.65,0,2,17,1,6,0.5,1,"0DKx3BNQ",0.898848399985582
"ADHD","start_with_long_delay"," test",2,1,6,4,2,2,4,0.65,0.45," right",2,0.35,0.45,0.55,0.65,0,2,17,1,6,0.5,1,"0DKx3BNQ",1.152155400021
"ADHD","start_with_long_delay"," test",2,1,7,4,1,4,1,0.65,0.35," left",1,0.35,0.45,0.55,0.65,1,3,18,1,6,0.5,1,"0DKx3BNQ",1.30244640004821
"ADHD","start_with_long_delay"," test",2,1,8,4,1,4,1,0.65,0.35," left",1,0.35,0.45,0.55,0.65,1,4,19,1,6,0.5,1,"0DKx3BNQ",0.6506658999715
"ADHD","start_with_long_delay"," test",2,1,9,3,2,3,2,0.55,0.45," left",1,0.35,0.45,0.55,0.65,1,5,20,1,6,0.5,1,"0DKx3BNQ",0.698238100158051
"ADHD","start_with_long_delay"," test",2,1,10,2,4,2,4,0.45,0.65," left",1,0.35,0.45,0.55,0.65,0,5,20,1,6,0.5,1,"0DKx3BNQ",0.912811300018802
"ADHD","start_with_long_delay"," test",2,1,11,2,4,4,2,0.45,0.65," right",2,0.35,0.45,0.55,0.65,0,5,20,1,6,0.5,1,"0DKx3BNQ",0.642276200000197
"ADHD","start_with_long_delay"," test",2,1,12,3,4,4,3,0.55,0.65," right",2,0.35,0.45,0.55,0.65,1,6,21,1,6,0.5,1,"0DKx3BNQ",0.698239100165665
"ADHD","start_with_long_delay"," test",2,1,13,3,2,3,2,0.55,0.45," left",1,0.35,0.45,0.55,0.65,0,6,21,1,6,0.5,1,"0DKx3BNQ",0.709382999921218
"ADHD","start_with_long_delay"," test",2,1,14,3,2,2,3,0.55,0.45," right",2,0.35,0.45,0.55,0.65,0,6,21,1,6,0.5,1,"0DKx3BNQ",0.558165199821815
"ADHD","start_with_long_delay"," test",2,1,15,1,2,1,2,0.35,0.45," left",1,0.35,0.45,0.55,0.65,0,6,21,1,6,0.5,1,"0DKx3BNQ",2.18882800010033
"ADHD","start_with_long_delay"," test",2,1,16,2,4,2,4,0.45,0.65," left",1,0.35,0.45,0.55,0.65,1,7,22,1,6,0.5,1,"0DKx3BNQ",1.19424490001984
"ADHD","start_with_long_delay"," test",2,1,17,4,1,1,4,0.65,0.35," right",2,0.35,0.45,0.55,0.65,0,7,22,1,6,0.5,1,"0DKx3BNQ",0.611239099875093
"ADHD","start_with_long_delay"," test",2,1,18,4,1,1,4,0.65,0.35," right",2,0.35,0.45,0.55,0.65,0,7,22,1,6,0.5,1,"0DKx3BNQ",0.839940200094134
"ADHD","start_with_long_delay"," test",2,1,19,2,1,1,2,0.45,0.35," right",2,0.35,0.45,0.55,0.65,1,8,23,1,6,0.5,1,"0DKx3BNQ",0.733084399951622
"ADHD","start_with_long_delay"," test",2,1,20,3,4,4,3,0.55,0.65," right",2,0.35,0.45,0.55,0.65,1,9,24,1,6,0.5,1,"0DKx3BNQ",0.535506499931216
"ADHD","start_with_long_delay"," test",2,1,21,3,4,4,3,0.55,0.65," right",2,0.35,0.45,0.55,0.65,1,10,25,1,6,0.5,1,"0DKx3BNQ",0.359421300003305
"ADHD","start_with_long_delay"," test",2,1,22,4,1,4,1,0.65,0.35," left",1,0.35,0.45,0.55,0.65,0,10,25,1,6,0.5,1,"0DKx3BNQ",1.00854839989915
"ADHD","start_with_long_delay"," test",2,1,23,4,2,2,4,0.65,0.45," right",2,0.35,0.45,0.55,0.65,1,11,26,1,6,0.5,1,"0DKx3BNQ",0.938609399832785
"ADHD","start_with_long_delay"," test",2,1,24,4,1,4,1,0.65,0.35," left",1,0.35,0.45,0.55,0.65,1,12,27,1,6,0.5,1,"0DKx3BNQ",1.36529109999537
"ADHD","start_with_long_delay"," test",2,1,25,2,1,1,2,0.45,0.35," right",2,0.35,0.45,0.55,0.65,1,13,28,1,6,0.5,1,"0DKx3BNQ",0.85612399992533
"ADHD","start_with_long_delay"," test",3,7,1,3,4,3,4,0.55,0.65," left",1,0.35,0.45,0.55,0.65,1,1,29,1,6,0.5,1,"0DKx3BNQ",0.565893900115043
"ADHD","start_with_long_delay"," test",3,7,2,1,2,2,1,0.35,0.45," right",2,0.35,0.45,0.55,0.65,1,2,30,1,6,0.5,1,"0DKx3BNQ",0.664494200143963
"ADHD","start_with_long_delay"," test",3,7,3,1,2,1,2,0.35,0.45," left",1,0.35,0.45,0.55,0.65,0,2,30,1,6,0.5,1,"0DKx3BNQ",0.311492299893871
"ADHD","start_with_long_delay"," test",3,7,4,3,2,3,2,0.55,0.45," left",1,0.35,0.45,0.55,0.65,0,2,30,1,6,0.5,1,"0DKx3BNQ",0.899455599952489
"ADHD","start_with_long_delay"," test",3,7,5,4,1,1,4,0.65,0.35," right",2,0.35,0.45,0.55,0.65,1,3,31,1,6,0.5,1,"0DKx3BNQ",0.823353300103918
"ADHD","start_with_long_delay"," test",3,7,6,4,3,4,3,0.65,0.55," left",1,0.35,0.45,0.55,0.65,0,3,31,1,6,0.5,1,"0DKx3BNQ",0.763864899985492
"ADHD","start_with_long_delay"," test",3,7,7,4,2,2,4,0.65,0.45," right",2,0.35,0.45,0.55,0.65,1,4,32,1,6,0.5,1,"0DKx3BNQ",0.638510099845007
"ADHD","start_with_long_delay"," test",3,7,8,3,2,2,3,0.55,0.45," right",2,0.35,0.45,0.55,0.65,1,5,33,1,6,0.5,1,"0DKx3BNQ",0.464539099950343
"ADHD","start_with_long_delay"," test",3,7,9,3,2,3,2,0.55,0.45," left",1,0.35,0.45,0.55,0.65,1,6,34,1,6,0.5,1,"0DKx3BNQ",0.382519300095737
"ADHD","start_with_long_delay"," test",3,7,10,3,2,3,2,0.55,0.45," left",1,0.35,0.45,0.55,0.65,0,6,34,1,6,0.5,1,"0DKx3BNQ",0.379821500042453
"ADHD","start_with_long_delay"," test",3,7,11,1,2,1,2,0.35,0.45," left",1,0.35,0.45,0.55,0.65,0,6,34,1,6,0.5,1,"0DKx3BNQ",0.7616709000431
"ADHD","start_with_long_delay"," test",3,7,12,3,2,3,2,0.55,0.45," left",1,0.35,0.45,0.55,0.65,0,6,34,1,6,0.5,1,"0DKx3BNQ",0.397485399851575
"ADHD","start_with_long_delay"," test",3,7,13,1,4,1,4,0.35,0.65," left",1,0.35,0.45,0.55,0.65,0,6,34,1,6,0.5,1,"0DKx3BNQ",1.10454700002447
"ADHD","start_with_long_delay"," test",3,7,14,2,1,2,1,0.45,0.35," left",1,0.35,0.45,0.55,0.65,0,6,34,1,6,0.5,1,"0DKx3BNQ",1.44587579998188
"ADHD","start_with_long_delay"," test",3,7,15,3,4,4,3,0.55,0.65," right",2,0.35,0.45,0.55,0.65,1,7,35,1,6,0.5,1,"0DKx3BNQ",0.684265600051731
"ADHD","start_with_long_delay"," test",3,7,16,3,4,4,3,0.55,0.65," right",2,0.35,0.45,0.55,0.65,0,7,35,1,6,0.5,1,"0DKx3BNQ",0.493815099820495
"ADHD","start_with_long_delay"," test",3,7,17,3,4,3,4,0.55,0.65," left",1,0.35,0.45,0.55,0.65,0,7,35,1,6,0.5,1,"0DKx3BNQ",0.367770900018513
"ADHD","start_with_long_delay"," test",3,7,18,4,2,4,2,0.65,0.45," left",1,0.35,0.45,0.55,0.65,1,8,36,1,6,0.5,1,"0DKx3BNQ",0.816764699993655
"ADHD","start_with_long_delay"," test",3,7,19,4,2,4,2,0.65,0.45," left",1,0.35,0.45,0.55,0.65,1,9,37,1,6,0.5,1,"0DKx3BNQ",0.54560670000501
"ADHD","start_with_long_delay"," test",3,7,20,3,4,4,3,0.55,0.65," right",2,0.35,0.45,0.55,0.65,1,10,38,1,6,0.5,1,"0DKx3BNQ",0.599316500127316
"ADHD","start_with_long_delay"," test",3,7,21,3,4,4,3,0.55,0.65," right",2,0.35,0.45,0.55,0.65,0,10,38,1,6,0.5,1,"0DKx3BNQ",0.531923100119457
"ADHD","start_with_long_delay"," test",3,7,22,2,1,1,2,0.45,0.35," right",2,0.35,0.45,0.55,0.65,1,11,39,1,6,0.5,1,"0DKx3BNQ",0.987837099935859
"ADHD","start_with_long_delay"," test",3,7,23,3,2,3,2,0.55,0.45," left",1,0.35,0.45,0.55,0.65,0,11,39,1,6,0.5,1,"0DKx3BNQ",0.748156499816105
"ADHD","start_with_long_delay"," test",3,7,24,2,1,2,1,0.45,0.35," left",1,0.35,0.45,0.55,0.65,1,12,40,1,6,0.5,1,"0DKx3BNQ",0.764264600118622
"ADHD","start_with_long_delay"," test",3,7,25,2,4,2,4,0.45,0.65," left",1,0.35,0.45,0.55,0.65,0,12,40,1,6,0.5,1,"0DKx3BNQ",0.522158400155604
"ADHD","start_with_long_delay"," test",4,1,1,4,2,2,4,0.65,0.45," right",2,0.35,0.45,0.55,0.65,1,1,41,1,6,0.5,1,"0DKx3BNQ",0.76590449991636
"ADHD","start_with_long_delay"," test",4,1,2,4,2,4,2,0.65,0.45," left",1,0.35,0.45,0.55,0.65,0,1,41,1,6,0.5,1,"0DKx3BNQ",0.4269215001259
"ADHD","start_with_long_delay"," test",4,1,3,1,2,1,2,0.35,0.45," left",1,0.35,0.45,0.55,0.65,0,1,41,1,6,0.5,1,"0DKx3BNQ",0.594400499947369
"ADHD","start_with_long_delay"," test",4,1,4,1,4,4,1,0.35,0.65," right",2,0.35,0.45,0.55,0.65,0,1,41,1,6,0.5,1,"0DKx3BNQ",0.57326430012472
"ADHD","start_with_long_delay"," test",4,1,5,3,2,3,2,0.55,0.45," left",1,0.35,0.45,0.55,0.65,1,2,42,1,6,0.5,1,"0DKx3BNQ",0.797789999982342
"ADHD","start_with_long_delay"," test",4,1,6,1,4,4,1,0.35,0.65," right",2,0.35,0.45,0.55,0.65,0,2,42,1,6,0.5,1,"0DKx3BNQ",0.691633299924433
"ADHD","start_with_long_delay"," test",4,1,7,2,1,2,1,0.45,0.35," left",1,0.35,0.45,0.55,0.65,1,3,43,1,6,0.5,1,"0DKx3BNQ",1.12369720009156
"ADHD","start_with_long_delay"," test",4,1,8,3,1,3,1,0.55,0.35," left",1,0.35,0.45,0.55,0.65,0,3,43,1,6,0.5,1,"0DKx3BNQ",1.3804083999712
"ADHD","start_with_long_delay"," test",4,1,9,2,1,1,2,0.45,0.35," right",2,0.35,0.45,0.55,0.65,0,3,43,1,6,0.5,1,"0DKx3BNQ",0.790490900166333
"ADHD","start_with_long_delay"," test",4,1,10,3,2,2,3,0.55,0.45," right",2,0.35,0.45,0.55,0.65,1,4,44,1,6,0.5,1,"0DKx3BNQ",0.867481000022963
"ADHD","start_with_long_delay"," test",4,1,11,3,2,2,3,0.55,0.45," right",2,0.35,0.45,0.55,0.65,1,5,45,1,6,0.5,1,"0DKx3BNQ",0.389940000139177
"ADHD","start_with_long_delay"," test",4,1,12,3,4,4,3,0.55,0.65," right",2,0.35,0.45,0.55,0.65,1,6,46,1,6,0.5,1,"0DKx3BNQ",0.365835099946707
"ADHD","start_with_long_delay"," test",4,1,13,1,4,4,1,0.35,0.65," right",2,0.35,0.45,0.55,0.65,0,6,46,1,6,0.5,1,"0DKx3BNQ",1.10824189987034
"ADHD","start_with_long_delay"," test",4,1,14,2,1,1,2,0.45,0.35," right",2,0.35,0.45,0.55,0.65,0,6,46,1,6,0.5,1,"0DKx3BNQ",1.11679339990951
"ADHD","start_with_long_delay"," test",4,1,15,1,4,1,4,0.35,0.65," left",1,0.35,0.45,0.55,0.65,0,6,46,1,6,0.5,1,"0DKx3BNQ",0.896940999897197
"ADHD","start_with_long_delay"," test",4,1,16,4,1,4,1,0.65,0.35," left",1,0.35,0.45,0.55,0.65,1,7,47,1,6,0.5,1,"0DKx3BNQ",0.509467700030655
"ADHD","start_with_long_delay"," test",4,1,17,3,1,1,3,0.55,0.35," right",2,0.35,0.45,0.55,0.65,0,7,47,1,6,0.5,1,"0DKx3BNQ",0.823190199909732
"ADHD","start_with_long_delay"," test",4,1,18,4,1,1,4,0.65,0.35," right",2,0.35,0.45,0.55,0.65,1,8,48,1,6,0.5,1,"0DKx3BNQ",0.393996000057086
"ADHD","start_with_long_delay"," test",4,1,19,3,4,4,3,0.55,0.65," right",2,0.35,0.45,0.55,0.65,1,9,49,1,6,0.5,1,"0DKx3BNQ",0.579802100080997
"ADHD","start_with_long_delay"," test",4,1,20,4,1,4,1,0.65,0.35," left",1,0.35,0.45,0.55,0.65,0,9,49,1,6,0.5,1,"0DKx3BNQ",0.848944899858907
"ADHD","start_with_long_delay"," test",4,1,21,3,2,3,2,0.55,0.45," left",1,0.35,0.45,0.55,0.65,0,9,49,1,6,0.5,1,"0DKx3BNQ",0.707770300097764
"ADHD","start_with_long_delay"," test",4,1,22,2,1,2,1,0.45,0.35," left",1,0.35,0.45,0.55,0.65,1,10,50,1,6,0.5,1,"0DKx3BNQ",1.34103010012768
"ADHD","start_with_long_delay"," test",4,1,23,3,2,3,2,0.55,0.45," left",1,0.35,0.45,0.55,0.65,0,10,50,1,6,0.5,1,"0DKx3BNQ",0.771793400170282
"ADHD","start_with_long_delay"," test",4,1,24,3,1,1,3,0.55,0.35," right",2,0.35,0.45,0.55,0.65,1,11,51,1,6,0.5,1,"0DKx3BNQ",0.562685400014743
"ADHD","start_with_long_delay"," test",4,1,25,2,4,2,4,0.45,0.65," left",1,0.35,0.45,0.55,0.65,0,11,51,1,6,0.5,1,"0DKx3BNQ",0.559076400008053
"ADHD","start_with_long_delay"," test",5,7,1,1,3,1,3,0.35,0.55," left",1,0.35,0.45,0.55,0.65,1,1,52,1,6,0.5,1,"0DKx3BNQ",0.613544199848548
"ADHD","start_with_long_delay"," test",5,7,2,3,2,2,3,0.55,0.45," right",2,0.35,0.45,0.55,0.65,0,1,52,1,6,0.5,1,"0DKx3BNQ",0.633391600102186
"ADHD","start_with_long_delay"," test",5,7,3,2,3,3,2,0.45,0.55," right",2,0.35,0.45,0.55,0.65,0,1,52,1,6,0.5,1,"0DKx3BNQ",0.584884300129488
"ADHD","start_with_long_delay"," test",5,7,4,1,4,1,4,0.35,0.65," left",1,0.35,0.45,0.55,0.65,0,1,52,1,6,0.5,1,"0DKx3BNQ",0.617937200004235
"ADHD","start_with_long_delay"," test",5,7,5,2,3,3,2,0.45,0.55," right",2,0.35,0.45,0.55,0.65,0,1,52,1,6,0.5,1,"0DKx3BNQ",0.875123600009829
"ADHD","start_with_long_delay"," test",5,7,6,2,3,3,2,0.45,0.55," right",2,0.35,0.45,0.55,0.65,1,2,53,1,6,0.5,1,"0DKx3BNQ",0.679513799957931
"ADHD","start_with_long_delay"," test",5,7,7,2,3,3,2,0.45,0.55," right",2,0.35,0.45,0.55,0.65,1,3,54,1,6,0.5,1,"0DKx3BNQ",0.61366800009273
"ADHD","start_with_long_delay"," test",5,7,8,4,2,2,4,0.65,0.45," right",2,0.35,0.45,0.55,0.65,1,4,55,1,6,0.5,1,"0DKx3BNQ",0.34556689998135
"ADHD","start_with_long_delay"," test",5,7,9,4,3,3,4,0.65,0.55," right",2,0.35,0.45,0.55,0.65,0,4,55,1,6,0.5,1,"0DKx3BNQ",0.316820600070059
"ADHD","start_with_long_delay"," test",5,7,10,2,3,2,3,0.45,0.55," left",1,0.35,0.45,0.55,0.65,0,4,55,1,6,0.5,1,"0DKx3BNQ",0.884629900101572
"ADHD","start_with_long_delay"," test",5,7,11,4,1,4,1,0.65,0.35," left",1,0.35,0.45,0.55,0.65,0,4,55,1,6,0.5,1,"0DKx3BNQ",0.432752700056881
"ADHD","start_with_long_delay"," test",5,7,12,4,2,2,4,0.65,0.45," right",2,0.35,0.45,0.55,0.65,1,5,56,1,6,0.5,1,"0DKx3BNQ",0.308089100057259
"ADHD","start_with_long_delay"," test",5,7,13,4,3,3,4,0.65,0.55," right",2,0.35,0.45,0.55,0.65,0,5,56,1,6,0.5,1,"0DKx3BNQ",0.289400100009516
"ADHD","start_with_long_delay"," test",5,7,14,2,3,3,2,0.45,0.55," right",2,0.35,0.45,0.55,0.65,0,5,56,1,6,0.5,1,"0DKx3BNQ",0.581808000104502
"ADHD","start_with_long_delay"," test",5,7,15,4,2,2,4,0.65,0.45," right",2,0.35,0.45,0.55,0.65,1,6,57,1,6,0.5,1,"0DKx3BNQ",0.364792099921033
"ADHD","start_with_long_delay"," test",5,7,16,2,3,2,3,0.45,0.55," left",1,0.35,0.45,0.55,0.65,1,7,58,1,6,0.5,1,"0DKx3BNQ",0.597205400001258
"ADHD","start_with_long_delay"," test",5,7,17,4,3,4,3,0.65,0.55," left",1,0.35,0.45,0.55,0.65,1,8,59,1,6,0.5,1,"0DKx3BNQ",0.322272599907592
"ADHD","start_with_long_delay"," test",5,7,18,4,2,2,4,0.65,0.45," right",2,0.35,0.45,0.55,0.65,1,9,60,1,6,0.5,1,"0DKx3BNQ",0.331260500010103
"ADHD","start_with_long_delay"," test",5,7,19,4,2,2,4,0.65,0.45," right",2,0.35,0.45,0.55,0.65,1,10,61,1,6,0.5,1,"0DKx3BNQ",0.321830099914223
"ADHD","start_with_long_delay"," test",5,7,20,1,3,1,3,0.35,0.55," left",1,0.35,0.45,0.55,0.65,0,10,61,1,6,0.5,1,"0DKx3BNQ",0.34965609991923
"ADHD","start_with_long_delay"," test",5,7,21,1,3,3,1,0.35,0.55," right",2,0.35,0.45,0.55,0.65,0,10,61,1,6,0.5,1,"0DKx3BNQ",0.664365499978885
"ADHD","start_with_long_delay"," test",5,7,22,1,3,1,3,0.35,0.55," left",1,0.35,0.45,0.55,0.65,0,10,61,1,6,0.5,1,"0DKx3BNQ",0.542748699896038
"ADHD","start_with_long_delay"," test",5,7,23,1,3,3,1,0.35,0.55," right",2,0.35,0.45,0.55,0.65,1,11,62,1,6,0.5,1,"0DKx3BNQ",0.458136900095269
"ADHD","start_with_long_delay"," test",5,7,24,4,2,2,4,0.65,0.45," right",2,0.35,0.45,0.55,0.65,0,11,62,1,6,0.5,1,"0DKx3BNQ",0.31315160007216
"ADHD","start_with_long_delay"," test",5,7,25,4,2,4,2,0.65,0.45," left",1,0.35,0.45,0.55,0.65,1,12,63,1,6,0.5,1,"0DKx3BNQ",0.336070399964228
"ADHD","start_with_long_delay"," test",6,1,1,3,1,1,3,0.55,0.35," right",2,0.35,0.45,0.55,0.65,1,1,64,1,6,0.5,1,"0DKx3BNQ",0.80969740008004
"ADHD","start_with_long_delay"," test",6,1,2,3,2,2,3,0.55,0.45," right",2,0.35,0.45,0.55,0.65,0,1,64,1,6,0.5,1,"0DKx3BNQ",0.366792300017551
"ADHD","start_with_long_delay"," test",6,1,3,3,4,3,4,0.55,0.65," left",1,0.35,0.45,0.55,0.65,1,2,65,1,6,0.5,1,"0DKx3BNQ",0.404460499994457
"ADHD","start_with_long_delay"," test",6,1,4,3,4,3,4,0.55,0.65," left",1,0.35,0.45,0.55,0.65,1,3,66,1,6,0.5,1,"0DKx3BNQ",0.669746000086889
"ADHD","start_with_long_delay"," test",6,1,5,2,1,2,1,0.45,0.35," left",1,0.35,0.45,0.55,0.65,0,3,66,1,6,0.5,1,"0DKx3BNQ",0.526851100148633
"ADHD","start_with_long_delay"," test",6,1,6,2,1,1,2,0.45,0.35," right",2,0.35,0.45,0.55,0.65,1,4,67,1,6,0.5,1,"0DKx3BNQ",0.304165799869224
"ADHD","start_with_long_delay"," test",6,1,7,2,1,2,1,0.45,0.35," left",1,0.35,0.45,0.55,0.65,1,5,68,1,6,0.5,1,"0DKx3BNQ",0.380490300012752
"ADHD","start_with_long_delay"," test",6,1,8,1,4,4,1,0.35,0.65," right",2,0.35,0.45,0.55,0.65,0,5,68,1,6,0.5,1,"0DKx3BNQ",0.890225900104269
"ADHD","start_with_long_delay"," test",6,1,9,3,4,4,3,0.55,0.65," right",2,0.35,0.45,0.55,0.65,0,5,68,1,6,0.5,1,"0DKx3BNQ",0.675088299904019
"ADHD","start_with_long_delay"," test",6,1,10,3,4,4,3,0.55,0.65," right",2,0.35,0.45,0.55,0.65,1,6,69,1,6,0.5,1,"0DKx3BNQ",0.415911300107837
"ADHD","start_with_long_delay"," test",6,1,11,1,4,4,1,0.35,0.65," right",2,0.35,0.45,0.55,0.65,0,6,69,1,6,0.5,1,"0DKx3BNQ",1.17676570010372
"ADHD","start_with_long_delay"," test",6,1,12,1,2,1,2,0.35,0.45," left",1,0.35,0.45,0.55,0.65,0,6,69,1,6,0.5,1,"0DKx3BNQ",0.367236000020057
"ADHD","start_with_long_delay"," test",6,1,13,3,1,3,1,0.55,0.35," left",1,0.35,0.45,0.55,0.65,1,7,70,1,6,0.5,1,"0DKx3BNQ",0.680021400097758
"ADHD","start_with_long_delay"," test",6,1,14,1,4,1,4,0.35,0.65," left",1,0.35,0.45,0.55,0.65,0,7,70,1,6,0.5,1,"0DKx3BNQ",1.2286300000269
"ADHD","start_with_long_delay"," test",6,1,15,2,3,2,3,0.45,0.55," left",1,0.35,0.45,0.55,0.65,0,7,70,1,6,0.5,1,"0DKx3BNQ",0.541883100057021
"ADHD","start_with_long_delay"," test",6,1,16,2,1,1,2,0.45,0.35," right",2,0.35,0.45,0.55,0.65,1,8,71,1,6,0.5,1,"0DKx3BNQ",0.259911400033161
"ADHD","start_with_long_delay"," test",6,1,17,3,4,3,4,0.55,0.65," left",1,0.35,0.45,0.55,0.65,1,9,72,1,6,0.5,1,"0DKx3BNQ",0.547382300021127
"ADHD","start_with_long_delay"," test",6,1,18,3,1,1,3,0.55,0.35," right",2,0.35,0.45,0.55,0.65,1,10,73,1,6,0.5,1,"0DKx3BNQ",1.14576699980535
"ADHD","start_with_long_delay"," test",6,1,19,2,3,2,3,0.45,0.55," left",1,0.35,0.45,0.55,0.65,1,11,74,1,6,0.5,1,"0DKx3BNQ",0.296355200000107
"ADHD","start_with_long_delay"," test",6,1,20,3,4,3,4,0.55,0.65," left",1,0.35,0.45,0.55,0.65,0,11,74,1,6,0.5,1,"0DKx3BNQ",0.613119299989194
"ADHD","start_with_long_delay"," test",6,1,21,2,3,3,2,0.45,0.55," right",2,0.35,0.45,0.55,0.65,0,11,74,1,6,0.5,1,"0DKx3BNQ",0.262120899977162
"ADHD","start_with_long_delay"," test",6,1,22,2,3,2,3,0.45,0.55," left",1,0.35,0.45,0.55,0.65,1,12,75,1,6,0.5,1,"0DKx3BNQ",0.277003000024706
"ADHD","start_with_long_delay"," test",6,1,23,3,4,4,3,0.55,0.65," right",2,0.35,0.45,0.55,0.65,1,13,76,1,6,0.5,1,"0DKx3BNQ",0.498245200142264
"ADHD","start_with_long_delay"," test",6,1,24,2,3,3,2,0.45,0.55," right",2,0.35,0.45,0.55,0.65,1,14,77,1,6,0.5,1,"0DKx3BNQ",0.298933999845758
"ADHD","start_with_long_delay"," test",6,1,25,3,4,3,4,0.55,0.65," left",1,0.35,0.45,0.55,0.65,1,15,78,1,6,0.5,1,"0DKx3BNQ",0.547757599968463
"ADHD","start_with_long_delay"," test",7,7,1,3,1,1,3,0.55,0.35," right",2,0.35,0.45,0.55,0.65,0,0,78,1,6,0.5,1,"0DKx3BNQ",0.457407600013539
"ADHD","start_with_long_delay"," test",7,7,2,3,4,4,3,0.55,0.65," right",2,0.35,0.45,0.55,0.65,1,1,79,1,6,0.5,1,"0DKx3BNQ",0.621150800026953
"ADHD","start_with_long_delay"," test",7,7,3,2,4,2,4,0.45,0.65," left",1,0.35,0.45,0.55,0.65,0,1,79,1,6,0.5,1,"0DKx3BNQ",0.780141499824822
"ADHD","start_with_long_delay"," test",7,7,4,2,3,2,3,0.45,0.55," left",1,0.35,0.45,0.55,0.65,0,1,79,1,6,0.5,1,"0DKx3BNQ",0.48888189997524
"ADHD","start_with_long_delay"," test",7,7,5,3,1,1,3,0.55,0.35," right",2,0.35,0.45,0.55,0.65,1,2,80,1,6,0.5,1,"0DKx3BNQ",0.46639890014194
"ADHD","start_with_long_delay"," test",7,7,6,2,1,1,2,0.45,0.35," right",2,0.35,0.45,0.55,0.65,0,2,80,1,6,0.5,1,"0DKx3BNQ",0.729315800126642
"ADHD","start_with_long_delay"," test",7,7,7,3,4,3,4,0.55,0.65," left",1,0.35,0.45,0.55,0.65,1,3,81,1,6,0.5,1,"0DKx3BNQ",0.464681699872017
"ADHD","start_with_long_delay"," test",7,7,8,3,1,3,1,0.55,0.35," left",1,0.35,0.45,0.55,0.65,0,3,81,1,6,0.5,1,"0DKx3BNQ",0.46249289996922
"ADHD","start_with_long_delay"," test",7,7,9,3,1,1,3,0.55,0.35," right",2,0.35,0.45,0.55,0.65,0,3,81,1,6,0.5,1,"0DKx3BNQ",0.587608400033787
"ADHD","start_with_long_delay"," test",7,7,10,3,2,2,3,0.55,0.45," right",2,0.35,0.45,0.55,0.65,1,4,82,1,6,0.5,1,"0DKx3BNQ",0.318326399894431
"ADHD","start_with_long_delay"," test",7,7,11,3,4,3,4,0.55,0.65," left",1,0.35,0.45,0.55,0.65,1,5,83,1,6,0.5,1,"0DKx3BNQ",0.301527000032365
"ADHD","start_with_long_delay"," test",7,7,12,3,2,2,3,0.55,0.45," right",2,0.35,0.45,0.55,0.65,0,5,83,1,6,0.5,1,"0DKx3BNQ",0.297977700131014
"ADHD","start_with_long_delay"," test",7,7,13,3,1,1,3,0.55,0.35," right",2,0.35,0.45,0.55,0.65,0,5,83,1,6,0.5,1,"0DKx3BNQ",0.243726700078696
"ADHD","start_with_long_delay"," test",7,7,14,3,2,3,2,0.55,0.45," left",1,0.35,0.45,0.55,0.65,1,6,84,1,6,0.5,1,"0DKx3BNQ",0.298129299888387
"ADHD","start_with_long_delay"," test",7,7,15,4,2,4,2,0.65,0.45," left",1,0.35,0.45,0.55,0.65,0,6,84,1,6,0.5,1,"0DKx3BNQ",0.915030899923295
"ADHD","start_with_long_delay"," test",7,7,16,4,2,2,4,0.65,0.45," right",2,0.35,0.45,0.55,0.65,1,7,85,1,6,0.5,1,"0DKx3BNQ",0.830885700182989
"ADHD","start_with_long_delay"," test",7,7,17,3,2,3,2,0.55,0.45," left",1,0.35,0.45,0.55,0.65,1,8,86,1,6,0.5,1,"0DKx3BNQ",0.553105700062588
"ADHD","start_with_long_delay"," test",7,7,18,1,2,2,1,0.35,0.45," right",2,0.35,0.45,0.55,0.65,1,9,87,1,6,0.5,1,"0DKx3BNQ",0.847950299968943
"ADHD","start_with_long_delay"," test",7,7,19,3,4,4,3,0.55,0.65," right",2,0.35,0.45,0.55,0.65,0,9,87,1,6,0.5,1,"0DKx3BNQ",0.259645800106227
"ADHD","start_with_long_delay"," test",7,7,20,3,4,4,3,0.55,0.65," right",2,0.35,0.45,0.55,0.65,1,10,88,1,6,0.5,1,"0DKx3BNQ",0.293255199911073
"ADHD","start_with_long_delay"," test",7,7,21,3,2,3,2,0.55,0.45," left",1,0.35,0.45,0.55,0.65,0,10,88,1,6,0.5,1,"0DKx3BNQ",0.6202481999062
"ADHD","start_with_long_delay"," test",7,7,22,3,4,4,3,0.55,0.65," right",2,0.35,0.45,0.55,0.65,0,10,88,1,6,0.5,1,"0DKx3BNQ",0.266845899866894
"ADHD","start_with_long_delay"," test",7,7,23,2,4,2,4,0.45,0.65," left",1,0.35,0.45,0.55,0.65,0,10,88,1,6,0.5,1,"0DKx3BNQ",0.618199900025502
"ADHD","start_with_long_delay"," test",7,7,24,3,1,1,3,0.55,0.35," right",2,0.35,0.45,0.55,0.65,0,10,88,1,6,0.5,1,"0DKx3BNQ",0.44169280002825
"ADHD","start_with_long_delay"," test",7,7,25,3,2,3,2,0.55,0.45," left",1,0.35,0.45,0.55,0.65,1,11,89,1,6,0.5,1,"0DKx3BNQ",0.348650099942461
"ADHD","start_with_long_delay"," test",8,1,1,3,1,1,3,0.55,0.35," right",2,0.35,0.45,0.55,0.65,1,1,90,1,6,0.5,1,"0DKx3BNQ",0.740868099965155
"ADHD","start_with_long_delay"," test",8,1,2,3,4,3,4,0.55,0.65," left",1,0.35,0.45,0.55,0.65,1,2,91,1,6,0.5,1,"0DKx3BNQ",0.319244399899617
"ADHD","start_with_long_delay"," test",8,1,3,3,1,3,1,0.55,0.35," left",1,0.35,0.45,0.55,0.65,0,2,91,1,6,0.5,1,"0DKx3BNQ",0.428544699912891
"ADHD","start_with_long_delay"," test",8,1,4,3,4,3,4,0.55,0.65," left",1,0.35,0.45,0.55,0.65,1,3,92,1,6,0.5,1,"0DKx3BNQ",0.343834399944171
"ADHD","start_with_long_delay"," test",8,1,5,3,1,1,3,0.55,0.35," right",2,0.35,0.45,0.55,0.65,1,4,93,1,6,0.5,1,"0DKx3BNQ",0.299353700131178
"ADHD","start_with_long_delay"," test",8,1,6,3,1,1,3,0.55,0.35," right",2,0.35,0.45,0.55,0.65,0,4,93,1,6,0.5,1,"0DKx3BNQ",0.339449499966577
"ADHD","start_with_long_delay"," test",8,1,7,1,4,4,1,0.35,0.65," right",2,0.35,0.45,0.55,0.65,0,4,93,1,6,0.5,1,"0DKx3BNQ",0.335946600185707
"ADHD","start_with_long_delay"," test",8,1,8,3,4,3,4,0.55,0.65," left",1,0.35,0.45,0.55,0.65,1,5,94,1,6,0.5,1,"0DKx3BNQ",0.325840099947527
"ADHD","start_with_long_delay"," test",8,1,9,1,4,1,4,0.35,0.65," left",1,0.35,0.45,0.55,0.65,0,5,94,1,6,0.5,1,"0DKx3BNQ",0.770375399850309
"ADHD","start_with_long_delay"," test",8,1,10,4,1,4,1,0.65,0.35," left",1,0.35,0.45,0.55,0.65,0,5,94,1,6,0.5,1,"0DKx3BNQ",0.920481099979952
"ADHD","start_with_long_delay"," test",8,1,11,1,3,1,3,0.35,0.55," left",1,0.35,0.45,0.55,0.65,1,6,95,1,6,0.5,1,"0DKx3BNQ",0.392503099981695
"ADHD","start_with_long_delay"," test",8,1,12,1,2,2,1,0.35,0.45," right",2,0.35,0.45,0.55,0.65,0,6,95,1,6,0.5,1,"0DKx3BNQ",0.477237999904901
"ADHD","start_with_long_delay"," test",8,1,13,3,4,3,4,0.55,0.65," left",1,0.35,0.45,0.55,0.65,0,6,95,1,6,0.5,1,"0DKx3BNQ",0.328264400130138
"ADHD","start_with_long_delay"," test",8,1,14,1,4,1,4,0.35,0.65," left",1,0.35,0.45,0.55,0.65,0,6,95,1,6,0.5,1,"0DKx3BNQ",0.340240100165829
"ADHD","start_with_long_delay"," test",8,1,15,1,2,1,2,0.35,0.45," left",1,0.35,0.45,0.55,0.65,1,7,96,1,6,0.5,1,"0DKx3BNQ",0.395512499846518
"ADHD","start_with_long_delay"," test",8,1,16,1,4,1,4,0.35,0.65," left",1,0.35,0.45,0.55,0.65,1,8,97,1,6,0.5,1,"0DKx3BNQ",0.360351999988779
"ADHD","start_with_long_delay"," test",8,1,17,1,4,1,4,0.35,0.65," left",1,0.35,0.45,0.55,0.65,1,9,98,1,6,0.5,1,"0DKx3BNQ",0.561381899984553
"ADHD","start_with_long_delay"," test",8,1,18,3,1,1,3,0.55,0.35," right",2,0.35,0.45,0.55,0.65,1,10,99,1,6,0.5,1,"0DKx3BNQ",0.452728499891236
"ADHD","start_with_long_delay"," test",8,1,19,3,1,3,1,0.55,0.35," left",1,0.35,0.45,0.55,0.65,0,10,99,1,6,0.5,1,"0DKx3BNQ",0.344416500069201
"ADHD","start_with_long_delay"," test",8,1,20,4,2,2,4,0.65,0.45," right",2,0.35,0.45,0.55,0.65,1,11,100,1,6,0.5,1,"0DKx3BNQ",0.662568700034171
"ADHD","start_with_long_delay"," test",8,1,21,4,2,4,2,0.65,0.45," left",1,0.35,0.45,0.55,0.65,1,12,101,1,6,0.5,1,"0DKx3BNQ",0.400942400097847
"ADHD","start_with_long_delay"," test",8,1,22,3,4,3,4,0.55,0.65," left",1,0.35,0.45,0.55,0.65,0,12,101,1,6,0.5,1,"0DKx3BNQ",0.442587900208309
"ADHD","start_with_long_delay"," test",8,1,23,3,1,3,1,0.55,0.35," left",1,0.35,0.45,0.55,0.65,1,13,102,1,6,0.5,1,"0DKx3BNQ",0.368724799947813
"ADHD","start_with_long_delay"," test",8,1,24,1,2,2,1,0.35,0.45," right",2,0.35,0.45,0.55,0.65,0,13,102,1,6,0.5,1,"0DKx3BNQ",0.370439399965107
"ADHD","start_with_long_delay"," test",8,1,25,1,2,1,2,0.35,0.45," left",1,0.35,0.45,0.55,0.65,1,14,103,1,6,0.5,1,"0DKx3BNQ",0.360417800024152
"control","start_with_long_delay"," test",1,7,1,3,4,3,4,0.55,0.65," left",1,0.35,0.45,0.55,0.65,1,1,1,1,6,0.5,1,"3f5MYPfx",0.681591100001242
"control","start_with_long_delay"," test",1,7,2,1,4,4,1,0.35,0.65," right",2,0.35,0.45,0.55,0.65,0,1,1,1,6,0.5,1,"3f5MYPfx",0.637272100007976
"control","start_with_long_delay"," test",1,7,3,3,1,3,1,0.55,0.35," left",1,0.35,0.45,0.55,0.65,0,1,1,1,6,0.5,1,"3f5MYPfx",0.509973799998988
"control","start_with_long_delay"," test",1,7,4,1,4,4,1,0.35,0.65," right",2,0.35,0.45,0.55,0.65,0,1,1,1,6,0.5,1,"3f5MYPfx",0.348073000001023
"control","start_with_long_delay"," test",1,7,5,2,1,1,2,0.45,0.35," right",2,0.35,0.45,0.55,0.65,0,1,1,1,6,0.5,1,"3f5MYPfx",0.710176699998556
"control","start_with_long_delay"," test",1,7,6,2,1,1,2,0.45,0.35," right",2,0.35,0.45,0.55,0.65,0,1,1,1,6,0.5,1,"3f5MYPfx",0.839062600003672
"control","start_with_long_delay"," test",1,7,7,3,4,3,4,0.55,0.65," left",1,0.35,0.45,0.55,0.65,0,1,1,1,6,0.5,1,"3f5MYPfx",0.493105500005186
"control","start_with_long_delay"," test",1,7,8,2,4,2,4,0.45,0.65," left",1,0.35,0.45,0.55,0.65,0,1,1,1,6,0.5,1,"3f5MYPfx",0.686731800000416
"control","start_with_long_delay"," test",1,7,9,4,2,2,4,0.65,0.45," right",2,0.35,0.45,0.55,0.65,1,2,2,1,6,0.5,1,"3f5MYPfx",0.435866600004374
"control","start_with_long_delay"," test",1,7,10,4,3,3,4,0.65,0.55," right",2,0.35,0.45,0.55,0.65,1,3,3,1,6,0.5,1,"3f5MYPfx",0.685446599993156
"control","start_with_long_delay"," test",1,7,11,1,3,3,1,0.35,0.55," right",2,0.35,0.45,0.55,0.65,0,3,3,1,6,0.5,1,"3f5MYPfx",1.05079900000419
"control","start_with_long_delay"," test",1,7,12,4,2,2,4,0.65,0.45," right",2,0.35,0.45,0.55,0.65,0,3,3,1,6,0.5,1,"3f5MYPfx",1.42859759999556
"control","start_with_long_delay"," test",1,7,13,3,1,1,3,0.55,0.35," right",2,0.35,0.45,0.55,0.65,1,4,4,1,6,0.5,1,"3f5MYPfx",1.25177580000309
"control","start_with_long_delay"," test",1,7,14,4,1,4,1,0.65,0.35," left",1,0.35,0.45,0.55,0.65,1,5,5,1,6,0.5,1,"3f5MYPfx",0.853320099995472
"control","start_with_long_delay"," test",1,7,15,4,2,2,4,0.65,0.45," right",2,0.35,0.45,0.55,0.65,1,6,6,1,6,0.5,1,"3f5MYPfx",0.711920000001555
"control","start_with_long_delay"," test",1,7,16,1,4,1,4,0.35,0.65," left",1,0.35,0.45,0.55,0.65,1,7,7,1,6,0.5,1,"3f5MYPfx",0.055945400003111
"control","start_with_long_delay"," test",1,7,17,4,2,2,4,0.65,0.45," right",2,0.35,0.45,0.55,0.65,0,7,7,1,6,0.5,1,"3f5MYPfx",0.934481000003871
"control","start_with_long_delay"," test",1,7,18,2,3,2,3,0.45,0.55," left",1,0.35,0.45,0.55,0.65,0,7,7,1,6,0.5,1,"3f5MYPfx",0.821021499999915
"control","start_with_long_delay"," test",1,7,19,3,1,1,3,0.55,0.35," right",2,0.35,0.45,0.55,0.65,0,7,7,1,6,0.5,1,"3f5MYPfx",0.399612100009108
"control","start_with_long_delay"," test",1,7,20,2,3,3,2,0.45,0.55," right",2,0.35,0.45,0.55,0.65,1,8,8,1,6,0.5,1,"3f5MYPfx",1.13435789999494
"control","start_with_long_delay"," test",1,7,21,2,1,2,1,0.45,0.35," left",1,0.35,0.45,0.55,0.65,0,8,8,1,6,0.5,1,"3f5MYPfx",0.470864100003382
"control","start_with_long_delay"," test",1,7,22,2,1,1,2,0.45,0.35," right",2,0.35,0.45,0.55,0.65,0,8,8,1,6,0.5,1,"3f5MYPfx",0.594111099999282
"control","start_with_long_delay"," test",1,7,23,4,1,4,1,0.65,0.35," left",1,0.35,0.45,0.55,0.65,1,9,9,1,6,0.5,1,"3f5MYPfx",0.552077100001043
"control","start_with_long_delay"," test",1,7,24,1,2,2,1,0.35,0.45," right",2,0.35,0.45,0.55,0.65,0,9,9,1,6,0.5,1,"3f5MYPfx",1.03529210000124
"control","start_with_long_delay"," test",1,7,25,4,3,3,4,0.65,0.55," right",2,0.35,0.45,0.55,0.65,1,10,10,1,6,0.5,1,"3f5MYPfx",0.958754999999655
"control","start_with_long_delay"," test",2,1,1,2,1,1,2,0.45,0.35," right",2,0.35,0.45,0.55,0.65,1,1,11,1,6,0.5,1,"3f5MYPfx",0.992075699992711
"control","start_with_long_delay"," test",2,1,2,3,4,4,3,0.55,0.65," right",2,0.35,0.45,0.55,0.65,1,2,12,1,6,0.5,1,"3f5MYPfx",0.98887200000172
"control","start_with_long_delay"," test",2,1,3,1,4,1,4,0.35,0.65," left",1,0.35,0.45,0.55,0.65,0,2,12,1,6,0.5,1,"3f5MYPfx",0.398059400002239
"control","start_with_long_delay"," test",2,1,4,3,1,3,1,0.55,0.35," left",1,0.35,0.45,0.55,0.65,1,3,13,1,6,0.5,1,"3f5MYPfx",0.663219800000661
"control","start_with_long_delay"," test",2,1,5,3,1,3,1,0.55,0.35," left",1,0.35,0.45,0.55,0.65,0,3,13,1,6,0.5,1,"3f5MYPfx",0.601538100003381
"control","start_with_long_delay"," test",2,1,6,3,1,1,3,0.55,0.35," right",2,0.35,0.45,0.55,0.65,1,4,14,1,6,0.5,1,"3f5MYPfx",0.85493800000404
"control","start_with_long_delay"," test",2,1,7,2,4,2,4,0.45,0.65," left",1,0.35,0.45,0.55,0.65,0,4,14,1,6,0.5,1,"3f5MYPfx",0.608703299993067
"control","start_with_long_delay"," test",2,1,8,3,1,3,1,0.55,0.35," left",1,0.35,0.45,0.55,0.65,1,5,15,1,6,0.5,1,"3f5MYPfx",0.632787700000335
"control","start_with_long_delay"," test",2,1,9,3,1,3,1,0.55,0.35," left",1,0.35,0.45,0.55,0.65,0,5,15,1,6,0.5,1,"3f5MYPfx",0.460213900005328
"control","start_with_long_delay"," test",2,1,10,3,1,1,3,0.55,0.35," right",2,0.35,0.45,0.55,0.65,1,6,16,1,6,0.5,1,"3f5MYPfx",0.517706600003294
"control","start_with_long_delay"," test",2,1,11,2,1,2,1,0.45,0.35," left",1,0.35,0.45,0.55,0.65,0,6,16,1,6,0.5,1,"3f5MYPfx",1.11299380000855
"control","start_with_long_delay"," test",2,1,12,3,1,1,3,0.55,0.35," right",2,0.35,0.45,0.55,0.65,1,7,17,1,6,0.5,1,"3f5MYPfx",0.506369199996698
"control","start_with_long_delay"," test",2,1,13,3,1,3,1,0.55,0.35," left",1,0.35,0.45,0.55,0.65,1,8,18,1,6,0.5,1,"3f5MYPfx",0.597477800009074
"control","start_with_long_delay"," test",2,1,14,3,4,3,4,0.55,0.65," left",1,0.35,0.45,0.55,0.65,1,9,19,1,6,0.5,1,"3f5MYPfx",1.91908740000508
"control","start_with_long_delay"," test",2,1,15,2,3,3,2,0.45,0.55," right",2,0.35,0.45,0.55,0.65,0,9,19,1,6,0.5,1,"3f5MYPfx",1.57247610000195
"control","start_with_long_delay"," test",2,1,16,2,4,4,2,0.45,0.65," right",2,0.35,0.45,0.55,0.65,0,9,19,1,6,0.5,1,"3f5MYPfx",0.883404600012
"control","start_with_long_delay"," test",2,1,17,4,3,3,4,0.65,0.55," right",2,0.35,0.45,0.55,0.65,1,10,20,1,6,0.5,1,"3f5MYPfx",0.740380200004438
"control","start_with_long_delay"," test",2,1,18,2,1,2,1,0.45,0.35," left",1,0.35,0.45,0.55,0.65,1,11,21,1,6,0.5,1,"3f5MYPfx",1.62642149999738
"control","start_with_long_delay"," test",2,1,19,4,2,2,4,0.65,0.45," right",2,0.35,0.45,0.55,0.65,0,11,21,1,6,0.5,1,"3f5MYPfx",1.03358930000104
"control","start_with_long_delay"," test",2,1,20,3,1,1,3,0.55,0.35," right",2,0.35,0.45,0.55,0.65,0,11,21,1,6,0.5,1,"3f5MYPfx",0.621205000003101
"control","start_with_long_delay"," test",2,1,21,2,1,2,1,0.45,0.35," left",1,0.35,0.45,0.55,0.65,0,11,21,1,6,0.5,1,"3f5MYPfx",0.801938000004156
"control","start_with_long_delay"," test",2,1,22,4,2,4,2,0.65,0.45," left",1,0.35,0.45,0.55,0.65,0,11,21,1,6,0.5,1,"3f5MYPfx",0.534127299993997
"control","start_with_long_delay"," test",2,1,23,3,2,3,2,0.55,0.45," left",1,0.35,0.45,0.55,0.65,1,12,22,1,6,0.5,1,"3f5MYPfx",0.542021600005683
"control","start_with_long_delay"," test",2,1,24,3,1,1,3,0.55,0.35," right",2,0.35,0.45,0.55,0.65,1,13,23,1,6,0.5,1,"3f5MYPfx",0.675936900006491
"control","start_with_long_delay"," test",2,1,25,4,1,1,4,0.65,0.35," right",2,0.35,0.45,0.55,0.65,0,13,23,1,6,0.5,1,"3f5MYPfx",1.17308579999371
"control","start_with_long_delay"," test",3,7,1,1,3,1,3,0.35,0.55," left",1,0.35,0.45,0.55,0.65,1,1,24,1,6,0.5,1,"3f5MYPfx",0.739756199996918
"control","start_with_long_delay"," test",3,7,2,1,3,3,1,0.35,0.55," right",2,0.35,0.45,0.55,0.65,1,2,25,1,6,0.5,1,"3f5MYPfx",0.364271999991615
"control","start_with_long_delay"," test",3,7,3,2,1,2,1,0.45,0.35," left",1,0.35,0.45,0.55,0.65,0,2,25,1,6,0.5,1,"3f5MYPfx",0.617461899993941
"control","start_with_long_delay"," test",3,7,4,1,2,1,2,0.35,0.45," left",1,0.35,0.45,0.55,0.65,0,2,25,1,6,0.5,1,"3f5MYPfx",0.520954599996912
"control","start_with_long_delay"," test",3,7,5,2,4,4,2,0.45,0.65," right",2,0.35,0.45,0.55,0.65,1,3,26,1,6,0.5,1,"3f5MYPfx",0.650396299999557
"control","start_with_long_delay"," test",3,7,6,4,3,4,3,0.65,0.55," left",1,0.35,0.45,0.55,0.65,1,4,27,1,6,0.5,1,"3f5MYPfx",0.667709600005765
"control","start_with_long_delay"," test",3,7,7,1,3,3,1,0.35,0.55," right",2,0.35,0.45,0.55,0.65,0,4,27,1,6,0.5,1,"3f5MYPfx",0.401644700003089
"control","start_with_long_delay"," test",3,7,8,3,4,3,4,0.55,0.65," left",1,0.35,0.45,0.55,0.65,0,4,27,1,6,0.5,1,"3f5MYPfx",0.710497299995041
"control","start_with_long_delay"," test",3,7,9,1,2,1,2,0.35,0.45," left",1,0.35,0.45,0.55,0.65,0,4,27,1,6,0.5,1,"3f5MYPfx",0.542823700001463
"control","start_with_long_delay"," test",3,7,10,3,1,1,3,0.55,0.35," right",2,0.35,0.45,0.55,0.65,0,4,27,1,6,0.5,1,"3f5MYPfx",0.688177800009726
"control","start_with_long_delay"," test",3,7,11,1,3,1,3,0.35,0.55," left",1,0.35,0.45,0.55,0.65,0,4,27,1,6,0.5,1,"3f5MYPfx",0.472184900005232
"control","start_with_long_delay"," test",3,7,12,4,3,3,4,0.65,0.55," right",2,0.35,0.45,0.55,0.65,1,5,28,1,6,0.5,1,"3f5MYPfx",1.11517699999968
"control","start_with_long_delay"," test",3,7,13,4,1,1,4,0.65,0.35," right",2,0.35,0.45,0.55,0.65,0,5,28,1,6,0.5,1,"3f5MYPfx",0.358941300000879
"control","start_with_long_delay"," test",3,7,14,4,3,3,4,0.65,0.55," right",2,0.35,0.45,0.55,0.65,1,6,29,1,6,0.5,1,"3f5MYPfx",0.880733199999668
"control","start_with_long_delay"," test",3,7,15,1,4,1,4,0.35,0.65," left",1,0.35,0.45,0.55,0.65,1,7,30,1,6,0.5,1,"3f5MYPfx",0.520392899998114
"control","start_with_long_delay"," test",3,7,16,3,4,4,3,0.55,0.65," right",2,0.35,0.45,0.55,0.65,0,7,30,1,6,0.5,1,"3f5MYPfx",0.913016400008928
"control","start_with_long_delay"," test",3,7,17,4,2,4,2,0.65,0.45," left",1,0.35,0.45,0.55,0.65,0,7,30,1,6,0.5,1,"3f5MYPfx",0.546062800000072
"control","start_with_long_delay"," test",3,7,18,3,2,2,3,0.55,0.45," right",2,0.35,0.45,0.55,0.65,0,7,30,1,6,0.5,1,"3f5MYPfx",0.429324199998518
"control","start_with_long_delay"," test",3,7,19,1,4,4,1,0.35,0.65," right",2,0.35,0.45,0.55,0.65,0,7,30,1,6,0.5,1,"3f5MYPfx",0.546951800002716
"control","start_with_long_delay"," test",3,7,20,1,3,1,3,0.35,0.55," left",1,0.35,0.45,0.55,0.65,1,8,31,1,6,0.5,1,"3f5MYPfx",1.25950970000122
"control","start_with_long_delay"," test",3,7,21,4,1,4,1,0.65,0.35," left",1,0.35,0.45,0.55,0.65,0,8,31,1,6,0.5,1,"3f5MYPfx",0.865085800003726
"control","start_with_long_delay"," test",3,7,22,1,4,4,1,0.35,0.65," right",2,0.35,0.45,0.55,0.65,0,8,31,1,6,0.5,1,"3f5MYPfx",0.529099799998221
"control","start_with_long_delay"," test",3,7,23,4,2,2,4,0.65,0.45," right",2,0.35,0.45,0.55,0.65,0,8,31,1,6,0.5,1,"3f5MYPfx",0.605051599995932
"control","start_with_long_delay"," test",3,7,24,1,3,1,3,0.35,0.55," left",1,0.35,0.45,0.55,0.65,1,9,32,1,6,0.5,1,"3f5MYPfx",0.476515999995172
"control","start_with_long_delay"," test",3,7,25,2,3,2,3,0.45,0.55," left",1,0.35,0.45,0.55,0.65,0,9,32,1,6,0.5,1,"3f5MYPfx",1.75441519999004
"control","start_with_long_delay"," test",4,1,1,4,3,3,4,0.65,0.55," right",2,0.35,0.45,0.55,0.65,0,0,32,1,6,0.5,1,"3f5MYPfx",1.08343039998726
"control","start_with_long_delay"," test",4,1,2,4,3,3,4,0.65,0.55," right",2,0.35,0.45,0.55,0.65,1,1,33,1,6,0.5,1,"3f5MYPfx",0.721115799999097
"control","start_with_long_delay"," test",4,1,3,4,3,3,4,0.65,0.55," right",2,0.35,0.45,0.55,0.65,1,2,34,1,6,0.5,1,"3f5MYPfx",1.16897349999635
"control","start_with_long_delay"," test",4,1,4,3,1,3,1,0.55,0.35," left",1,0.35,0.45,0.55,0.65,1,3,35,1,6,0.5,1,"3f5MYPfx",0.397252099995967
"control","start_with_long_delay"," test",4,1,5,3,2,3,2,0.55,0.45," left",1,0.35,0.45,0.55,0.65,1,4,36,1,6,0.5,1,"3f5MYPfx",0.382969199999934
"control","start_with_long_delay"," test",4,1,6,4,1,1,4,0.65,0.35," right",2,0.35,0.45,0.55,0.65,1,5,37,1,6,0.5,1,"3f5MYPfx",0.632150300007197
"control","start_with_long_delay"," test",4,1,7,2,1,2,1,0.45,0.35," left",1,0.35,0.45,0.55,0.65,0,5,37,1,6,0.5,1,"3f5MYPfx",0.806784399988828
"control","start_with_long_delay"," test",4,1,8,1,4,1,4,0.35,0.65," left",1,0.35,0.45,0.55,0.65,0,5,37,1,6,0.5,1,"3f5MYPfx",0.994869799993467
"control","start_with_long_delay"," test",4,1,9,3,2,2,3,0.55,0.45," right",2,0.35,0.45,0.55,0.65,1,6,38,1,6,0.5,1,"3f5MYPfx",0.516458500002045
"control","start_with_long_delay"," test",4,1,10,4,3,4,3,0.65,0.55," left",1,0.35,0.45,0.55,0.65,1,7,39,1,6,0.5,1,"3f5MYPfx",0.311585999996169
"control","start_with_long_delay"," test",4,1,11,4,3,4,3,0.65,0.55," left",1,0.35,0.45,0.55,0.65,1,8,40,1,6,0.5,1,"3f5MYPfx",0.335718699992867
"control","start_with_long_delay"," test",4,1,12,4,1,1,4,0.65,0.35," right",2,0.35,0.45,0.55,0.65,0,8,40,1,6,0.5,1,"3f5MYPfx",0.391412099997979
"control","start_with_long_delay"," test",4,1,13,3,2,3,2,0.55,0.45," left",1,0.35,0.45,0.55,0.65,1,9,41,1,6,0.5,1,"3f5MYPfx",0.507852000009734
"control","start_with_long_delay"," test",4,1,14,3,2,3,2,0.55,0.45," left",1,0.35,0.45,0.55,0.65,0,9,41,1,6,0.5,1,"3f5MYPfx",0.377390599998762
"control","start_with_long_delay"," test",4,1,15,3,4,4,3,0.55,0.65," right",2,0.35,0.45,0.55,0.65,1,10,42,1,6,0.5,1,"3f5MYPfx",0.446594199995161
"control","start_with_long_delay"," test",4,1,16,4,1,1,4,0.65,0.35," right",2,0.35,0.45,0.55,0.65,0,10,42,1,6,0.5,1,"3f5MYPfx",0.436229200000525
"control","start_with_long_delay"," test",4,1,17,2,1,2,1,0.45,0.35," left",1,0.35,0.45,0.55,0.65,1,11,43,1,6,0.5,1,"3f5MYPfx",0.576084799991804
"control","start_with_long_delay"," test",4,1,18,2,1,2,1,0.45,0.35," left",1,0.35,0.45,0.55,0.65,0,11,43,1,6,0.5,1,"3f5MYPfx",0.726030899997568
"control","start_with_long_delay"," test",4,1,19,4,2,4,2,0.65,0.45," left",1,0.35,0.45,0.55,0.65,0,11,43,1,6,0.5,1,"3f5MYPfx",0.58449200000905
"control","start_with_long_delay"," test",4,1,20,4,2,2,4,0.65,0.45," right",2,0.35,0.45,0.55,0.65,1,12,44,1,6,0.5,1,"3f5MYPfx",0.382185400012531
"control","start_with_long_delay"," test",4,1,21,3,2,2,3,0.55,0.45," right",2,0.35,0.45,0.55,0.65,1,13,45,1,6,0.5,1,"3f5MYPfx",0.475753399994574
"control","start_with_long_delay"," test",4,1,22,3,1,3,1,0.55,0.35," left",1,0.35,0.45,0.55,0.65,0,13,45,1,6,0.5,1,"3f5MYPfx",0.40043439999863
"control","start_with_long_delay"," test",4,1,23,4,2,2,4,0.65,0.45," right",2,0.35,0.45,0.55,0.65,0,13,45,1,6,0.5,1,"3f5MYPfx",0.352524999994785
"control","start_with_long_delay"," test",4,1,24,3,4,4,3,0.55,0.65," right",2,0.35,0.45,0.55,0.65,0,13,45,1,6,0.5,1,"3f5MYPfx",0.375541300003533
"control","start_with_long_delay"," test",4,1,25,3,2,2,3,0.55,0.45," right",2,0.35,0.45,0.55,0.65,1,14,46,1,6,0.5,1,"3f5MYPfx",0.399863800004823
"control","start_with_long_delay"," test",5,7,1,3,1,1,3,0.55,0.35," right",2,0.35,0.45,0.55,0.65,1,1,47,1,6,0.5,1,"3f5MYPfx",0.322283300003619
"control","start_with_long_delay"," test",5,7,2,1,2,2,1,0.35,0.45," right",2,0.35,0.45,0.55,0.65,0,1,47,1,6,0.5,1,"3f5MYPfx",0.622247499995865
"control","start_with_long_delay"," test",5,7,3,3,1,1,3,0.55,0.35," right",2,0.35,0.45,0.55,0.65,1,2,48,1,6,0.5,1,"3f5MYPfx",0.591404400009196
"control","start_with_long_delay"," test",5,7,4,1,2,1,2,0.35,0.45," left",1,0.35,0.45,0.55,0.65,0,2,48,1,6,0.5,1,"3f5MYPfx",0.789494099997682
"control","start_with_long_delay"," test",5,7,5,3,2,3,2,0.55,0.45," left",1,0.35,0.45,0.55,0.65,1,3,49,1,6,0.5,1,"3f5MYPfx",0.491054700003588
"control","start_with_long_delay"," test",5,7,6,3,2,2,3,0.55,0.45," right",2,0.35,0.45,0.55,0.65,1,4,50,1,6,0.5,1,"3f5MYPfx",0.815471699999762
"control","start_with_long_delay"," test",5,7,7,2,3,2,3,0.45,0.55," left",1,0.35,0.45,0.55,0.65,0,4,50,1,6,0.5,1,"3f5MYPfx",0.647465899994131
"control","start_with_long_delay"," test",5,7,8,3,1,1,3,0.55,0.35," right",2,0.35,0.45,0.55,0.65,1,5,51,1,6,0.5,1,"3f5MYPfx",0.574456699992879
"control","start_with_long_delay"," test",5,7,9,3,2,2,3,0.55,0.45," right",2,0.35,0.45,0.55,0.65,0,5,51,1,6,0.5,1,"3f5MYPfx",0.711561700009042
"control","start_with_long_delay"," test",5,7,10,4,2,2,4,0.65,0.45," right",2,0.35,0.45,0.55,0.65,1,6,52,1,6,0.5,1,"3f5MYPfx",1.05874520000361
"control","start_with_long_delay"," test",5,7,11,4,2,2,4,0.65,0.45," right",2,0.35,0.45,0.55,0.65,1,7,53,1,6,0.5,1,"3f5MYPfx",0.460846699992544
"control","start_with_long_delay"," test",5,7,12,4,1,4,1,0.65,0.35," left",1,0.35,0.45,0.55,0.65,1,8,54,1,6,0.5,1,"3f5MYPfx",0.408580400006031
"control","start_with_long_delay"," test",5,7,13,4,2,2,4,0.65,0.45," right",2,0.35,0.45,0.55,0.65,1,9,55,1,6,0.5,1,"3f5MYPfx",0.347071500000311
"control","start_with_long_delay"," test",5,7,14,3,4,3,4,0.55,0.65," left",1,0.35,0.45,0.55,0.65,1,10,56,1,6,0.5,1,"3f5MYPfx",0.405236000005971
"control","start_with_long_delay"," test",5,7,15,3,2,2,3,0.55,0.45," right",2,0.35,0.45,0.55,0.65,0,10,56,1,6,0.5,1,"3f5MYPfx",0.455345499998657
"control","start_with_long_delay"," test",5,7,16,4,1,1,4,0.65,0.35," right",2,0.35,0.45,0.55,0.65,0,10,56,1,6,0.5,1,"3f5MYPfx",0.344620499992743
"control","start_with_long_delay"," test",5,7,17,3,4,4,3,0.55,0.65," right",2,0.35,0.45,0.55,0.65,1,11,57,1,6,0.5,1,"3f5MYPfx",0.447348899993813
"control","start_with_long_delay"," test",5,7,18,4,2,4,2,0.65,0.45," left",1,0.35,0.45,0.55,0.65,1,12,58,1,6,0.5,1,"3f5MYPfx",0.458672900000238
"control","start_with_long_delay"," test",5,7,19,4,2,4,2,0.65,0.45," left",1,0.35,0.45,0.55,0.65,1,13,59,1,6,0.5,1,"3f5MYPfx",0.364433800001279
"control","start_with_long_delay"," test",5,7,20,4,3,4,3,0.65,0.55," left",1,0.35,0.45,0.55,0.65,0,13,59,1,6,0.5,1,"3f5MYPfx",0.310126299998956
"control","start_with_long_delay"," test",5,7,21,3,4,3,4,0.55,0.65," left",1,0.35,0.45,0.55,0.65,0,13,59,1,6,0.5,1,"3f5MYPfx",0.34276790000149
"control","start_with_long_delay"," test",5,7,22,4,1,4,1,0.65,0.35," left",1,0.35,0.45,0.55,0.65,1,14,60,1,6,0.5,1,"3f5MYPfx",0.350151799997548
"control","start_with_long_delay"," test",5,7,23,1,2,2,1,0.35,0.45," right",2,0.35,0.45,0.55,0.65,0,14,60,1,6,0.5,1,"3f5MYPfx",0.579653599997982
"control","start_with_long_delay"," test",5,7,24,4,2,4,2,0.65,0.45," left",1,0.35,0.45,0.55,0.65,1,15,61,1,6,0.5,1,"3f5MYPfx",0.598198300009244
"control","start_with_long_delay"," test",5,7,25,4,3,3,4,0.65,0.55," right",2,0.35,0.45,0.55,0.65,0,15,61,1,6,0.5,1,"3f5MYPfx",0.562111200008076
"control","start_with_long_delay"," test",6,1,1,1,4,1,4,0.35,0.65," left",1,0.35,0.45,0.55,0.65,0,0,61,1,6,0.5,1,"3f5MYPfx",1.32378069999686
"control","start_with_long_delay"," test",6,1,2,1,4,4,1,0.35,0.65," right",2,0.35,0.45,0.55,0.65,1,1,62,1,6,0.5,1,"3f5MYPfx",0.334780500008492
"control","start_with_long_delay"," test",6,1,3,1,2,1,2,0.35,0.45," left",1,0.35,0.45,0.55,0.65,1,2,63,1,6,0.5,1,"3f5MYPfx",0.310279199999059
"control","start_with_long_delay"," test",6,1,4,4,3,4,3,0.65,0.55," left",1,0.35,0.45,0.55,0.65,0,2,63,1,6,0.5,1,"3f5MYPfx",0.535107299991068
"control","start_with_long_delay"," test",6,1,5,4,2,2,4,0.65,0.45," right",2,0.35,0.45,0.55,0.65,1,3,64,1,6,0.5,1,"3f5MYPfx",0.269503599993186
"control","start_with_long_delay"," test",6,1,6,1,3,3,1,0.35,0.55," right",2,0.35,0.45,0.55,0.65,0,3,64,1,6,0.5,1,"3f5MYPfx",0.500391499997932
"control","start_with_long_delay"," test",6,1,7,1,3,1,3,0.35,0.55," left",1,0.35,0.45,0.55,0.65,0,3,64,1,6,0.5,1,"3f5MYPfx",0.35785770000075
"control","start_with_long_delay"," test",6,1,8,1,4,1,4,0.35,0.65," left",1,0.35,0.45,0.55,0.65,0,3,64,1,6,0.5,1,"3f5MYPfx",0.307051499999943
"control","start_with_long_delay"," test",6,1,9,4,1,1,4,0.65,0.35," right",2,0.35,0.45,0.55,0.65,0,3,64,1,6,0.5,1,"3f5MYPfx",0.311941599997226
"control","start_with_long_delay"," test",6,1,10,4,3,4,3,0.65,0.55," left",1,0.35,0.45,0.55,0.65,1,4,65,1,6,0.5,1,"3f5MYPfx",0.335748999990756
"control","start_with_long_delay"," test",6,1,11,4,1,1,4,0.65,0.35," right",2,0.35,0.45,0.55,0.65,1,5,66,1,6,0.5,1,"3f5MYPfx",0.334893499995815
"control","start_with_long_delay"," test",6,1,12,4,1,1,4,0.65,0.35," right",2,0.35,0.45,0.55,0.65,1,6,67,1,6,0.5,1,"3f5MYPfx",0.373123500001384
"control","start_with_long_delay"," test",6,1,13,3,1,3,1,0.55,0.35," left",1,0.35,0.45,0.55,0.65,1,7,68,1,6,0.5,1,"3f5MYPfx",0.651697499997681
"control","start_with_long_delay"," test",6,1,14,4,1,1,4,0.65,0.35," right",2,0.35,0.45,0.55,0.65,1,8,69,1,6,0.5,1,"3f5MYPfx",0.437756699990132
"control","start_with_long_delay"," test",6,1,15,3,4,3,4,0.55,0.65," left",1,0.35,0.45,0.55,0.65,0,8,69,1,6,0.5,1,"3f5MYPfx",1.05988369999977
"control","start_with_long_delay"," test",6,1,16,2,1,2,1,0.45,0.35," left",1,0.35,0.45,0.55,0.65,0,8,69,1,6,0.5,1,"3f5MYPfx",0.603050299992901
"control","start_with_long_delay"," test",6,1,17,4,1,1,4,0.65,0.35," right",2,0.35,0.45,0.55,0.65,1,9,70,1,6,0.5,1,"3f5MYPfx",0.405213899997761
"control","start_with_long_delay"," test",6,1,18,4,2,2,4,0.65,0.45," right",2,0.35,0.45,0.55,0.65,0,9,70,1,6,0.5,1,"3f5MYPfx",0.317520500000683
"control","start_with_long_delay"," test",6,1,19,2,3,2,3,0.45,0.55," left",1,0.35,0.45,0.55,0.65,1,10,71,1,6,0.5,1,"3f5MYPfx",0.403508500006865
"control","start_with_long_delay"," test",6,1,20,2,4,4,2,0.45,0.65," right",2,0.35,0.45,0.55,0.65,0,10,71,1,6,0.5,1,"3f5MYPfx",0.313184500002535
"control","start_with_long_delay"," test",6,1,21,2,3,3,2,0.45,0.55," right",2,0.35,0.45,0.55,0.65,0,10,71,1,6,0.5,1,"3f5MYPfx",0.251479699989432
"control","start_with_long_delay"," test",6,1,22,2,4,2,4,0.45,0.65," left",1,0.35,0.45,0.55,0.65,1,11,72,1,6,0.5,1,"3f5MYPfx",0.504800599999726
"control","start_with_long_delay"," test",6,1,23,4,2,2,4,0.65,0.45," right",2,0.35,0.45,0.55,0.65,0,11,72,1,6,0.5,1,"3f5MYPfx",0.806424899987178
"control","start_with_long_delay"," test",6,1,24,3,1,3,1,0.55,0.35," left",1,0.35,0.45,0.55,0.65,0,11,72,1,6,0.5,1,"3f5MYPfx",1.00793180000619
"control","start_with_long_delay"," test",6,1,25,2,1,2,1,0.45,0.35," left",1,0.35,0.45,0.55,0.65,0,11,72,1,6,0.5,1,"3f5MYPfx",0.402587600008701
"control","start_with_long_delay"," test",7,7,1,3,2,3,2,0.55,0.45," left",1,0.35,0.45,0.55,0.65,1,1,73,1,6,0.5,1,"3f5MYPfx",0.913136300005135
"control","start_with_long_delay"," test",7,7,2,3,1,3,1,0.55,0.35," left",1,0.35,0.45,0.55,0.65,1,2,74,1,6,0.5,1,"3f5MYPfx",0.289424099988537
"control","start_with_long_delay"," test",7,7,3,4,1,1,4,0.65,0.35," right",2,0.35,0.45,0.55,0.65,0,2,74,1,6,0.5,1,"3f5MYPfx",0.6582505999977
"control","start_with_long_delay"," test",7,7,4,4,2,2,4,0.65,0.45," right",2,0.35,0.45,0.55,0.65,1,3,75,1,6,0.5,1,"3f5MYPfx",0.308884999991278
"control","start_with_long_delay"," test",7,7,5,3,1,1,3,0.55,0.35," right",2,0.35,0.45,0.55,0.65,1,4,76,1,6,0.5,1,"3f5MYPfx",1.29265960000339
"control","start_with_long_delay"," test",7,7,6,3,4,3,4,0.55,0.65," left",1,0.35,0.45,0.55,0.65,1,5,77,1,6,0.5,1,"3f5MYPfx",1.12047919999168
"control","start_with_long_delay"," test",7,7,7,3,4,3,4,0.55,0.65," left",1,0.35,0.45,0.55,0.65,0,5,77,1,6,0.5,1,"3f5MYPfx",1.22507349999796
"control","start_with_long_delay"," test",7,7,8,4,2,2,4,0.65,0.45," right",2,0.35,0.45,0.55,0.65,1,6,78,1,6,0.5,1,"3f5MYPfx",0.664526799999294
"control","start_with_long_delay"," test",7,7,9,3,1,1,3,0.55,0.35," right",2,0.35,0.45,0.55,0.65,1,7,79,1,6,0.5,1,"3f5MYPfx",1.33479790001002
"control","start_with_long_delay"," test",7,7,10,4,2,4,2,0.65,0.45," left",1,0.35,0.45,0.55,0.65,1,8,80,1,6,0.5,1,"3f5MYPfx",1.01072790000762
"control","start_with_long_delay"," test",7,7,11,3,1,3,1,0.55,0.35," left",1,0.35,0.45,0.55,0.65,0,8,80,1,6,0.5,1,"3f5MYPfx",0.562115699998685
"control","start_with_long_delay"," test",7,7,12,3,1,3,1,0.55,0.35," left",1,0.35,0.45,0.55,0.65,1,9,81,1,6,0.5,1,"3f5MYPfx",0.427849899991998
"control","start_with_long_delay"," test",7,7,13,4,2,2,4,0.65,0.45," right",2,0.35,0.45,0.55,0.65,1,10,82,1,6,0.5,1,"3f5MYPfx",0.80444959999295
"control","start_with_long_delay"," test",7,7,14,3,2,2,3,0.55,0.45," right",2,0.35,0.45,0.55,0.65,1,11,83,1,6,0.5,1,"3f5MYPfx",0.63198310000007
"control","start_with_long_delay"," test",7,7,15,4,2,2,4,0.65,0.45," right",2,0.35,0.45,0.55,0.65,0,11,83,1,6,0.5,1,"3f5MYPfx",0.602048800006742
"control","start_with_long_delay"," test",7,7,16,3,2,3,2,0.55,0.45," left",1,0.35,0.45,0.55,0.65,1,12,84,1,6,0.5,1,"3f5MYPfx",0.468225200005691
"control","start_with_long_delay"," test",7,7,17,1,2,2,1,0.35,0.45," right",2,0.35,0.45,0.55,0.65,1,13,85,1,6,0.5,1,"3f5MYPfx",1.06556050000654
"control","start_with_long_delay"," test",7,7,18,4,3,4,3,0.65,0.55," left",1,0.35,0.45,0.55,0.65,1,14,86,1,6,0.5,1,"3f5MYPfx",0.775988499997766
"control","start_with_long_delay"," test",7,7,19,4,1,1,4,0.65,0.35," right",2,0.35,0.45,0.55,0.65,0,14,86,1,6,0.5,1,"3f5MYPfx",1.62441469999612
"control","start_with_long_delay"," test",7,7,20,3,2,3,2,0.55,0.45," left",1,0.35,0.45,0.55,0.65,1,15,87,1,6,0.5,1,"3f5MYPfx",0.528806399990572
"control","start_with_long_delay"," test",7,7,21,3,4,3,4,0.55,0.65," left",1,0.35,0.45,0.55,0.65,0,15,87,1,6,0.5,1,"3f5MYPfx",0.531850799990934
"control","start_with_long_delay"," test",7,7,22,3,2,2,3,0.55,0.45," right",2,0.35,0.45,0.55,0.65,1,16,88,1,6,0.5,1,"3f5MYPfx",0.646000499997172
"control","start_with_long_delay"," test",7,7,23,1,2,1,2,0.35,0.45," left",1,0.35,0.45,0.55,0.65,0,16,88,1,6,0.5,1,"3f5MYPfx",1.01355040000635
"control","start_with_long_delay"," test",7,7,24,3,4,4,3,0.55,0.65," right",2,0.35,0.45,0.55,0.65,0,16,88,1,6,0.5,1,"3f5MYPfx",0.833912799993414
"control","start_with_long_delay"," test",7,7,25,4,1,4,1,0.65,0.35," left",1,0.35,0.45,0.55,0.65,1,17,89,1,6,0.5,1,"3f5MYPfx",0.779495700000552
"control","start_with_long_delay"," test",8,1,1,4,2,2,4,0.65,0.45," right",2,0.35,0.45,0.55,0.65,1,1,90,1,6,0.5,1,"3f5MYPfx",0.430107300009695
"control","start_with_long_delay"," test",8,1,2,4,2,2,4,0.65,0.45," right",2,0.35,0.45,0.55,0.65,0,1,90,1,6,0.5,1,"3f5MYPfx",0.277205000005779
"control","start_with_long_delay"," test",8,1,3,4,2,4,2,0.65,0.45," left",1,0.35,0.45,0.55,0.65,1,2,91,1,6,0.5,1,"3f5MYPfx",0.305802100003348
"control","start_with_long_delay"," test",8,1,4,4,2,4,2,0.65,0.45," left",1,0.35,0.45,0.55,0.65,1,3,92,1,6,0.5,1,"3f5MYPfx",0.293001199999708
"control","start_with_long_delay"," test",8,1,5,4,1,4,1,0.65,0.35," left",1,0.35,0.45,0.55,0.65,0,3,92,1,6,0.5,1,"3f5MYPfx",0.286076000003959
"control","start_with_long_delay"," test",8,1,6,3,1,1,3,0.55,0.35," right",2,0.35,0.45,0.55,0.65,1,4,93,1,6,0.5,1,"3f5MYPfx",0.947937300006743
"control","start_with_long_delay"," test",8,1,7,4,2,2,4,0.65,0.45," right",2,0.35,0.45,0.55,0.65,1,5,94,1,6,0.5,1,"3f5MYPfx",0.314301900012651
"control","start_with_long_delay"," test",8,1,8,4,2,2,4,0.65,0.45," right",2,0.35,0.45,0.55,0.65,1,6,95,1,6,0.5,1,"3f5MYPfx",0.341591900010826
"control","start_with_long_delay"," test",8,1,9,4,2,4,2,0.65,0.45," left",1,0.35,0.45,0.55,0.65,1,7,96,1,6,0.5,1,"3f5MYPfx",0.390408399995067
"control","start_with_long_delay"," test",8,1,10,4,1,4,1,0.65,0.35," left",1,0.35,0.45,0.55,0.65,1,8,97,1,6,0.5,1,"3f5MYPfx",0.303247300005751
"control","start_with_long_delay"," test",8,1,11,3,2,2,3,0.55,0.45," right",2,0.35,0.45,0.55,0.65,1,9,98,1,6,0.5,1,"3f5MYPfx",0.973184599992237
"control","start_with_long_delay"," test",8,1,12,4,1,4,1,0.65,0.35," left",1,0.35,0.45,0.55,0.65,1,10,99,1,6,0.5,1,"3f5MYPfx",0.565596000000369
"control","start_with_long_delay"," test",8,1,13,4,1,4,1,0.65,0.35," left",1,0.35,0.45,0.55,0.65,1,11,100,1,6,0.5,1,"3f5MYPfx",0.341950600006385
"control","start_with_long_delay"," test",8,1,14,3,4,4,3,0.55,0.65," right",2,0.35,0.45,0.55,0.65,1,12,101,1,6,0.5,1,"3f5MYPfx",0.770840199998929
"control","start_with_long_delay"," test",8,1,15,4,3,4,3,0.65,0.55," left",1,0.35,0.45,0.55,0.65,1,13,102,1,6,0.5,1,"3f5MYPfx",0.47271620000538
"control","start_with_long_delay"," test",8,1,16,1,2,1,2,0.35,0.45," left",1,0.35,0.45,0.55,0.65,1,14,103,1,6,0.5,1,"3f5MYPfx",1.10157359999721
"control","start_with_long_delay"," test",8,1,17,4,1,1,4,0.65,0.35," right",2,0.35,0.45,0.55,0.65,1,15,104,1,6,0.5,1,"3f5MYPfx",0.499268700004905
"control","start_with_long_delay"," test",8,1,18,3,1,3,1,0.55,0.35," left",1,0.35,0.45,0.55,0.65,0,15,104,1,6,0.5,1,"3f5MYPfx",0.840504599997075
"control","start_with_long_delay"," test",8,1,19,3,4,3,4,0.55,0.65," left",1,0.35,0.45,0.55,0.65,0,15,104,1,6,0.5,1,"3f5MYPfx",0.422494900005404
"control","start_with_long_delay"," test",8,1,20,3,2,3,2,0.55,0.45," left",1,0.35,0.45,0.55,0.65,1,16,105,1,6,0.5,1,"3f5MYPfx",0.384974999993574
"control","start_with_long_delay"," test",8,1,21,3,1,1,3,0.55,0.35," right",2,0.35,0.45,0.55,0.65,0,16,105,1,6,0.5,1,"3f5MYPfx",0.491900799999712
"control","start_with_long_delay"," test",8,1,22,3,2,2,3,0.55,0.45," right",2,0.35,0.45,0.55,0.65,0,16,105,1,6,0.5,1,"3f5MYPfx",0.358225799995125
"control","start_with_long_delay"," test",8,1,23,1,2,1,2,0.35,0.45," left",1,0.35,0.45,0.55,0.65,0,16,105,1,6,0.5,1,"3f5MYPfx",0.51689840000472
"control","start_with_long_delay"," test",8,1,24,3,2,3,2,0.55,0.45," left",1,0.35,0.45,0.55,0.65,1,17,106,1,6,0.5,1,"3f5MYPfx",0.414902100004838
"control","start_with_long_delay"," test",8,1,25,3,2,3,2,0.55,0.45," left",1,0.35,0.45,0.55,0.65,0,17,106,1,6,0.5,1,"3f5MYPfx",0.366297200002009
"ADHD","start_with_long_delay"," practice",1,1,1,4,1,4,1,0.65,0.35," left",1,0.35,0.45,0.55,0.65,1,1,1,1,6,0.5,1,"3i8lkN5J",2.62733309995383
"ADHD","start_with_long_delay"," practice",1,1,2,2,1,1,2,0.45,0.35," right",2,0.35,0.45,0.55,0.65,1,2,2,1,6,0.5,1,"3i8lkN5J",1.27664260007441
"ADHD","start_with_long_delay"," practice",1,1,3,2,3,2,3,0.45,0.55," left",1,0.35,0.45,0.55,0.65,0,2,2,1,6,0.5,1,"3i8lkN5J",1.7494880000595
"ADHD","start_with_long_delay"," practice",1,1,4,2,3,2,3,0.45,0.55," left",1,0.35,0.45,0.55,0.65,1,3,3,1,6,0.5,1,"3i8lkN5J",1.42517649987713
"ADHD","start_with_long_delay"," practice",1,1,5,2,3,2,3,0.45,0.55," left",1,0.35,0.45,0.55,0.65,1,4,4,1,6,0.5,1,"3i8lkN5J",0.848109199898317
"ADHD","start_with_long_delay"," test",1,7,1,2,4,4,2,0.45,0.65," right",2,0.35,0.45,0.55,0.65,0,0,4,1,6,0.5,1,"3i8lkN5J",1.01247479999438
"ADHD","start_with_long_delay"," test",1,7,2,3,4,3,4,0.55,0.65," left",1,0.35,0.45,0.55,0.65,1,1,5,1,6,0.5,1,"3i8lkN5J",0.971270699985325
"ADHD","start_with_long_delay"," test",1,7,3,3,2,3,2,0.55,0.45," left",1,0.35,0.45,0.55,0.65,1,2,6,1,6,0.5,1,"3i8lkN5J",1.01868469989859
"ADHD","start_with_long_delay"," test",1,7,4,3,2,3,2,0.55,0.45," left",1,0.35,0.45,0.55,0.65,1,3,7,1,6,0.5,1,"3i8lkN5J",0.565835900139064
"ADHD","start_with_long_delay"," test",1,7,5,3,4,3,4,0.55,0.65," left",1,0.35,0.45,0.55,0.65,0,3,7,1,6,0.5,1,"3i8lkN5J",0.608663399936631
"ADHD","start_with_long_delay"," test",1,7,6,3,2,2,3,0.55,0.45," right",2,0.35,0.45,0.55,0.65,0,3,7,1,6,0.5,1,"3i8lkN5J",0.756834200117737
"ADHD","start_with_long_delay"," test",1,7,7,4,2,4,2,0.65,0.45," left",1,0.35,0.45,0.55,0.65,1,4,8,1,6,0.5,1,"3i8lkN5J",1.80795889999717
"ADHD","start_with_long_delay"," test",1,7,8,3,2,2,3,0.55,0.45," right",2,0.35,0.45,0.55,0.65,0,4,8,1,6,0.5,1,"3i8lkN5J",1.2795732000377
"ADHD","start_with_long_delay"," test",1,7,9,3,2,3,2,0.55,0.45," left",1,0.35,0.45,0.55,0.65,0,4,8,1,6,0.5,1,"3i8lkN5J",0.382240900071338
"ADHD","start_with_long_delay"," test",1,7,10,4,1,4,1,0.65,0.35," left",1,0.35,0.45,0.55,0.65,1,5,9,1,6,0.5,1,"3i8lkN5J",1.69161679991521
"ADHD","start_with_long_delay"," test",1,7,11,1,2,1,2,0.35,0.45," left",1,0.35,0.45,0.55,0.65,1,6,10,1,6,0.5,1,"3i8lkN5J",1.26003349991515
"ADHD","start_with_long_delay"," test",1,7,12,3,4,3,4,0.55,0.65," left",1,0.35,0.45,0.55,0.65,1,7,11,1,6,0.5,1,"3i8lkN5J",0.702614899957553
"ADHD","start_with_long_delay"," test",1,7,13,3,4,4,3,0.55,0.65," right",2,0.35,0.45,0.55,0.65,1,8,12,1,6,0.5,1,"3i8lkN5J",0.982346300035715
"ADHD","start_with_long_delay"," test",1,7,14,1,2,2,1,0.35,0.45," right",2,0.35,0.45,0.55,0.65,0,8,12,1,6,0.5,1,"3i8lkN5J",1.1080004000105
"ADHD","start_with_long_delay"," test",1,7,15,3,4,3,4,0.55,0.65," left",1,0.35,0.45,0.55,0.65,1,9,13,1,6,0.5,1,"3i8lkN5J",0.676866400055587
"ADHD","start_with_long_delay"," test",1,7,16,3,1,3,1,0.55,0.35," left",1,0.35,0.45,0.55,0.65,1,10,14,1,6,0.5,1,"3i8lkN5J",0.503667500102893
"ADHD","start_with_long_delay"," test",1,7,17,3,1,1,3,0.55,0.35," right",2,0.35,0.45,0.55,0.65,1,11,15,1,6,0.5,1,"3i8lkN5J",0.628231999929994
"ADHD","start_with_long_delay"," test",1,7,18,3,1,3,1,0.55,0.35," left",1,0.35,0.45,0.55,0.65,0,11,15,1,6,0.5,1,"3i8lkN5J",0.428343399893492
"ADHD","start_with_long_delay"," test",1,7,19,4,2,2,4,0.65,0.45," right",2,0.35,0.45,0.55,0.65,1,12,16,1,6,0.5,1,"3i8lkN5J",1.04345890018158
"ADHD","start_with_long_delay"," test",1,7,20,3,1,3,1,0.55,0.35," left",1,0.35,0.45,0.55,0.65,0,12,16,1,6,0.5,1,"3i8lkN5J",0.518812299938872
"ADHD","start_with_long_delay"," test",1,7,21,4,2,4,2,0.65,0.45," left",1,0.35,0.45,0.55,0.65,0,12,16,1,6,0.5,1,"3i8lkN5J",0.834940700093284
"ADHD","start_with_long_delay"," test",1,7,22,4,2,2,4,0.65,0.45," right",2,0.35,0.45,0.55,0.65,0,12,16,1,6,0.5,1,"3i8lkN5J",1.57465550000779
"ADHD","start_with_long_delay"," test",1,7,23,3,4,4,3,0.55,0.65," right",2,0.35,0.45,0.55,0.65,0,12,16,1,6,0.5,1,"3i8lkN5J",0.568274899851531
"ADHD","start_with_long_delay"," test",1,7,24,3,1,3,1,0.55,0.35," left",1,0.35,0.45,0.55,0.65,1,13,17,1,6,0.5,1,"3i8lkN5J",0.630112299928442
"ADHD","start_with_long_delay"," test",1,7,25,4,2,2,4,0.65,0.45," right",2,0.35,0.45,0.55,0.65,1,14,18,1,6,0.5,1,"3i8lkN5J",2.68919390020892
"ADHD","start_with_long_delay"," test",2,1,1,2,1,1,2,0.45,0.35," right",2,0.35,0.45,0.55,0.65,0,0,18,1,6,0.5,1,"3i8lkN5J",1.8728720000945
"ADHD","start_with_long_delay"," test",2,1,2,3,2,3,2,0.55,0.45," left",1,0.35,0.45,0.55,0.65,1,1,19,1,6,0.5,1,"3i8lkN5J",0.626923299860209
"ADHD","start_with_long_delay"," test",2,1,3,4,2,2,4,0.65,0.45," right",2,0.35,0.45,0.55,0.65,1,2,20,1,6,0.5,1,"3i8lkN5J",0.718876800034195
"ADHD","start_with_long_delay"," test",2,1,4,4,2,2,4,0.65,0.45," right",2,0.35,0.45,0.55,0.65,1,3,21,1,6,0.5,1,"3i8lkN5J",0.662850300082937
"ADHD","start_with_long_delay"," test",2,1,5,3,1,3,1,0.55,0.35," left",1,0.35,0.45,0.55,0.65,1,4,22,1,6,0.5,1,"3i8lkN5J",0.816895499825478
"ADHD","start_with_long_delay"," test",2,1,6,3,1,3,1,0.55,0.35," left",1,0.35,0.45,0.55,0.65,1,5,23,1,6,0.5,1,"3i8lkN5J",0.63656620006077
"ADHD","start_with_long_delay"," test",2,1,7,4,2,2,4,0.65,0.45," right",2,0.35,0.45,0.55,0.65,1,6,24,1,6,0.5,1,"3i8lkN5J",0.572213199920952
"ADHD","start_with_long_delay"," test",2,1,8,1,2,2,1,0.35,0.45," right",2,0.35,0.45,0.55,0.65,1,7,25,1,6,0.5,1,"3i8lkN5J",1.09819629997946
"ADHD","start_with_long_delay"," test",2,1,9,3,1,1,3,0.55,0.35," right",2,0.35,0.45,0.55,0.65,1,8,26,1,6,0.5,1,"3i8lkN5J",1.04631839995272
"ADHD","start_with_long_delay"," test",2,1,10,1,2,1,2,0.35,0.45," left",1,0.35,0.45,0.55,0.65,0,8,26,1,6,0.5,1,"3i8lkN5J",1.08350290008821
"ADHD","start_with_long_delay"," test",2,1,11,3,4,3,4,0.55,0.65," left",1,0.35,0.45,0.55,0.65,0,8,26,1,6,0.5,1,"3i8lkN5J",1.01067420002073
"ADHD","start_with_long_delay"," test",2,1,12,3,1,3,1,0.55,0.35," left",1,0.35,0.45,0.55,0.65,0,8,26,1,6,0.5,1,"3i8lkN5J",0.558514899807051
"ADHD","start_with_long_delay"," test",2,1,13,3,2,2,3,0.55,0.45," right",2,0.35,0.45,0.55,0.65,1,9,27,1,6,0.5,1,"3i8lkN5J",1.24106039991602
"ADHD","start_with_long_delay"," test",2,1,14,3,2,3,2,0.55,0.45," left",1,0.35,0.45,0.55,0.65,1,10,28,1,6,0.5,1,"3i8lkN5J",0.539704599883407
"ADHD","start_with_long_delay"," test",2,1,15,3,1,3,1,0.55,0.35," left",1,0.35,0.45,0.55,0.65,1,11,29,1,6,0.5,1,"3i8lkN5J",0.588018900016323
"ADHD","start_with_long_delay"," test",2,1,16,3,1,3,1,0.55,0.35," left",1,0.35,0.45,0.55,0.65,1,12,30,1,6,0.5,1,"3i8lkN5J",0.368645899929106
"ADHD","start_with_long_delay"," test",2,1,17,4,2,4,2,0.65,0.45," left",1,0.35,0.45,0.55,0.65,1,13,31,1,6,0.5,1,"3i8lkN5J",0.912109399912879
"ADHD","start_with_long_delay"," test",2,1,18,1,2,1,2,0.35,0.45," left",1,0.35,0.45,0.55,0.65,1,14,32,1,6,0.5,1,"3i8lkN5J",1.48205800005235
"ADHD","start_with_long_delay"," test",2,1,19,1,2,2,1,0.35,0.45," right",2,0.35,0.45,0.55,0.65,0,14,32,1,6,0.5,1,"3i8lkN5J",0.771751699969172
"ADHD","start_with_long_delay"," test",2,1,20,4,3,4,3,0.65,0.55," left",1,0.35,0.45,0.55,0.65,0,14,32,1,6,0.5,1,"3i8lkN5J",0.601412700023502
"ADHD","start_with_long_delay"," test",2,1,21,3,2,2,3,0.55,0.45," right",2,0.35,0.45,0.55,0.65,0,14,32,1,6,0.5,1,"3i8lkN5J",0.4590041001793
"ADHD","start_with_long_delay"," test",2,1,22,3,1,1,3,0.55,0.35," right",2,0.35,0.45,0.55,0.65,0,14,32,1,6,0.5,1,"3i8lkN5J",0.518071800004691
"ADHD","start_with_long_delay"," test",2,1,23,3,4,4,3,0.55,0.65," right",2,0.35,0.45,0.55,0.65,0,14,32,1,6,0.5,1,"3i8lkN5J",0.790634999983013
"ADHD","start_with_long_delay"," test",2,1,24,1,2,1,2,0.35,0.45," left",1,0.35,0.45,0.55,0.65,1,15,33,1,6,0.5,1,"3i8lkN5J",0.770856099901721
"ADHD","start_with_long_delay"," test",2,1,25,3,4,3,4,0.55,0.65," left",1,0.35,0.45,0.55,0.65,0,15,33,1,6,0.5,1,"3i8lkN5J",0.988168499898165
"ADHD","start_with_long_delay"," test",3,7,1,2,3,3,2,0.45,0.55," right",2,0.35,0.45,0.55,0.65,0,0,33,1,6,0.5,1,"3i8lkN5J",1.76017119991593
"ADHD","start_with_long_delay"," test",3,7,2,3,2,3,2,0.55,0.45," left",1,0.35,0.45,0.55,0.65,0,0,33,1,6,0.5,1,"3i8lkN5J",0.897505100117996
"ADHD","start_with_long_delay"," test",3,7,3,4,3,4,3,0.65,0.55," left",1,0.35,0.45,0.55,0.65,1,1,34,1,6,0.5,1,"3i8lkN5J",0.642056400189176
"ADHD","start_with_long_delay"," test",3,7,4,4,2,2,4,0.65,0.45," right",2,0.35,0.45,0.55,0.65,1,2,35,1,6,0.5,1,"3i8lkN5J",0.530371399829164
"ADHD","start_with_long_delay"," test",3,7,5,2,3,3,2,0.45,0.55," right",2,0.35,0.45,0.55,0.65,1,3,36,1,6,0.5,1,"3i8lkN5J",1.50194270000793
"ADHD","start_with_long_delay"," test",3,7,6,2,3,2,3,0.45,0.55," left",1,0.35,0.45,0.55,0.65,0,3,36,1,6,0.5,1,"3i8lkN5J",1.02650010003708
"ADHD","start_with_long_delay"," test",3,7,7,3,2,2,3,0.55,0.45," right",2,0.35,0.45,0.55,0.65,1,4,37,1,6,0.5,1,"3i8lkN5J",0.60672890022397
"ADHD","start_with_long_delay"," test",3,7,8,3,1,3,1,0.55,0.35," left",1,0.35,0.45,0.55,0.65,0,4,37,1,6,0.5,1,"3i8lkN5J",0.998662499943748
"ADHD","start_with_long_delay"," test",3,7,9,1,2,2,1,0.35,0.45," right",2,0.35,0.45,0.55,0.65,0,4,37,1,6,0.5,1,"3i8lkN5J",0.998435799963772
"ADHD","start_with_long_delay"," test",3,7,10,4,3,4,3,0.65,0.55," left",1,0.35,0.45,0.55,0.65,1,5,38,1,6,0.5,1,"3i8lkN5J",0.348919800017029
"ADHD","start_with_long_delay"," test",3,7,11,3,1,3,1,0.55,0.35," left",1,0.35,0.45,0.55,0.65,1,6,39,1,6,0.5,1,"3i8lkN5J",0.947532699909061
"ADHD","start_with_long_delay"," test",3,7,12,3,2,2,3,0.55,0.45," right",2,0.35,0.45,0.55,0.65,1,7,40,1,6,0.5,1,"3i8lkN5J",0.61431650002487
"ADHD","start_with_long_delay"," test",3,7,13,4,1,4,1,0.65,0.35," left",1,0.35,0.45,0.55,0.65,0,7,40,1,6,0.5,1,"3i8lkN5J",0.420858799945563
"ADHD","start_with_long_delay"," test",3,7,14,2,1,1,2,0.45,0.35," right",2,0.35,0.45,0.55,0.65,1,8,41,1,6,0.5,1,"3i8lkN5J",1.19006220018491
"ADHD","start_with_long_delay"," test",3,7,15,4,2,4,2,0.65,0.45," left",1,0.35,0.45,0.55,0.65,1,9,42,1,6,0.5,1,"3i8lkN5J",0.578853699844331
"ADHD","start_with_long_delay"," test",3,7,16,2,1,1,2,0.45,0.35," right",2,0.35,0.45,0.55,0.65,0,9,42,1,6,0.5,1,"3i8lkN5J",1.01669460022822
"ADHD","start_with_long_delay"," test",3,7,17,3,1,3,1,0.55,0.35," left",1,0.35,0.45,0.55,0.65,1,10,43,1,6,0.5,1,"3i8lkN5J",0.891051599988714
"ADHD","start_with_long_delay"," test",3,7,18,4,1,4,1,0.65,0.35," left",1,0.35,0.45,0.55,0.65,0,10,43,1,6,0.5,1,"3i8lkN5J",0.585533400066197
"ADHD","start_with_long_delay"," test",3,7,19,4,3,4,3,0.65,0.55," left",1,0.35,0.45,0.55,0.65,0,10,43,1,6,0.5,1,"3i8lkN5J",0.470888799987733
"ADHD","start_with_long_delay"," test",3,7,20,4,3,4,3,0.65,0.55," left",1,0.35,0.45,0.55,0.65,0,10,43,1,6,0.5,1,"3i8lkN5J",0.64070999994874
"ADHD","start_with_long_delay"," test",3,7,21,4,2,2,4,0.65,0.45," right",2,0.35,0.45,0.55,0.65,1,11,44,1,6,0.5,1,"3i8lkN5J",0.532252899836749
"ADHD","start_with_long_delay"," test",3,7,22,4,1,1,4,0.65,0.35," right",2,0.35,0.45,0.55,0.65,0,11,44,1,6,0.5,1,"3i8lkN5J",0.527161200065166
"ADHD","start_with_long_delay"," test",3,7,23,4,2,2,4,0.65,0.45," right",2,0.35,0.45,0.55,0.65,1,12,45,1,6,0.5,1,"3i8lkN5J",0.635506900027394
"ADHD","start_with_long_delay"," test",3,7,24,4,3,4,3,0.65,0.55," left",1,0.35,0.45,0.55,0.65,0,12,45,1,6,0.5,1,"3i8lkN5J",0.497329999925569
"ADHD","start_with_long_delay"," test",3,7,25,3,1,1,3,0.55,0.35," right",2,0.35,0.45,0.55,0.65,1,13,46,1,6,0.5,1,"3i8lkN5J",1.73796509997919
"ADHD","start_with_long_delay"," test",4,1,1,4,1,1,4,0.65,0.35," right",2,0.35,0.45,0.55,0.65,1,1,47,1,6,0.5,1,"3i8lkN5J",2.63216709997505
"ADHD","start_with_long_delay"," test",4,1,2,3,2,3,2,0.55,0.45," left",1,0.35,0.45,0.55,0.65,1,2,48,1,6,0.5,1,"3i8lkN5J",1.74194320011884
"ADHD","start_with_long_delay"," test",4,1,3,3,2,3,2,0.55,0.45," left",1,0.35,0.45,0.55,0.65,0,2,48,1,6,0.5,1,"3i8lkN5J",0.626721400069073
"ADHD","start_with_long_delay"," test",4,1,4,2,1,1,2,0.45,0.35," right",2,0.35,0.45,0.55,0.65,1,3,49,1,6,0.5,1,"3i8lkN5J",0.69073999999091
"ADHD","start_with_long_delay"," test",4,1,5,2,1,2,1,0.45,0.35," left",1,0.35,0.45,0.55,0.65,0,3,49,1,6,0.5,1,"3i8lkN5J",0.724121799925342
"ADHD","start_with_long_delay"," test",4,1,6,2,1,2,1,0.45,0.35," left",1,0.35,0.45,0.55,0.65,0,3,49,1,6,0.5,1,"3i8lkN5J",0.591909800190479
"ADHD","start_with_long_delay"," test",4,1,7,4,1,4,1,0.65,0.35," left",1,0.35,0.45,0.55,0.65,0,3,49,1,6,0.5,1,"3i8lkN5J",0.767754199914634
"ADHD","start_with_long_delay"," test",4,1,8,4,3,4,3,0.65,0.55," left",1,0.35,0.45,0.55,0.65,1,4,50,1,6,0.5,1,"3i8lkN5J",0.479373800102621
"ADHD","start_with_long_delay"," test",4,1,9,2,1,2,1,0.45,0.35," left",1,0.35,0.45,0.55,0.65,1,5,51,1,6,0.5,1,"3i8lkN5J",0.792642699787393
"ADHD","start_with_long_delay"," test",4,1,10,3,1,1,3,0.55,0.35," right",2,0.35,0.45,0.55,0.65,0,5,51,1,6,0.5,1,"3i8lkN5J",1.12500600004569
"ADHD","start_with_long_delay"," test",4,1,11,3,2,3,2,0.55,0.45," left",1,0.35,0.45,0.55,0.65,0,5,51,1,6,0.5,1,"3i8lkN5J",0.726115099852905
"ADHD","start_with_long_delay"," test",4,1,12,2,3,2,3,0.45,0.55," left",1,0.35,0.45,0.55,0.65,0,5,51,1,6,0.5,1,"3i8lkN5J",0.400611399905756
"ADHD","start_with_long_delay"," test",4,1,13,4,1,4,1,0.65,0.35," left",1,0.35,0.45,0.55,0.65,1,6,52,1,6,0.5,1,"3i8lkN5J",0.578634100034833
"ADHD","start_with_long_delay"," test",4,1,14,4,2,2,4,0.65,0.45," right",2,0.35,0.45,0.55,0.65,1,7,53,1,6,0.5,1,"3i8lkN5J",0.411432000109926
"ADHD","start_with_long_delay"," test",4,1,15,4,2,2,4,0.65,0.45," right",2,0.35,0.45,0.55,0.65,0,7,53,1,6,0.5,1,"3i8lkN5J",1.211800100049
"ADHD","start_with_long_delay"," test",4,1,16,4,1,1,4,0.65,0.35," right",2,0.35,0.45,0.55,0.65,0,7,53,1,6,0.5,1,"3i8lkN5J",0.545224100118503
"ADHD","start_with_long_delay"," test",4,1,17,4,3,3,4,0.65,0.55," right",2,0.35,0.45,0.55,0.65,0,7,53,1,6,0.5,1,"3i8lkN5J",0.752002499997616
"ADHD","start_with_long_delay"," test",4,1,18,4,1,4,1,0.65,0.35," left",1,0.35,0.45,0.55,0.65,1,8,54,1,6,0.5,1,"3i8lkN5J",0.511442799819633
"ADHD","start_with_long_delay"," test",4,1,19,2,1,2,1,0.45,0.35," left",1,0.35,0.45,0.55,0.65,1,9,55,1,6,0.5,1,"3i8lkN5J",0.482654899824411
"ADHD","start_with_long_delay"," test",4,1,20,2,4,2,4,0.45,0.65," left",1,0.35,0.45,0.55,0.65,0,9,55,1,6,0.5,1,"3i8lkN5J",1.2196553000249
"ADHD","start_with_long_delay"," test",4,1,21,4,1,1,4,0.65,0.35," right",2,0.35,0.45,0.55,0.65,0,9,55,1,6,0.5,1,"3i8lkN5J",0.475916400086135
"ADHD","start_with_long_delay"," test",4,1,22,4,3,4,3,0.65,0.55," left",1,0.35,0.45,0.55,0.65,1,10,56,1,6,0.5,1,"3i8lkN5J",0.74732039985247
"ADHD","start_with_long_delay"," test",4,1,23,2,1,2,1,0.45,0.35," left",1,0.35,0.45,0.55,0.65,1,11,57,1,6,0.5,1,"3i8lkN5J",0.66440389980562
"ADHD","start_with_long_delay"," test",4,1,24,2,3,2,3,0.45,0.55," left",1,0.35,0.45,0.55,0.65,1,12,58,1,6,0.5,1,"3i8lkN5J",0.551714699948207
"ADHD","start_with_long_delay"," test",4,1,25,4,3,4,3,0.65,0.55," left",1,0.35,0.45,0.55,0.65,1,13,59,1,6,0.5,1,"3i8lkN5J",0.777011099969968
"ADHD","start_with_long_delay"," test",5,7,1,1,2,2,1,0.35,0.45," right",2,0.35,0.45,0.55,0.65,0,0,59,1,6,0.5,1,"3i8lkN5J",0.777421299833804
"ADHD","start_with_long_delay"," test",5,7,2,3,2,3,2,0.55,0.45," left",1,0.35,0.45,0.55,0.65,1,1,60,1,6,0.5,1,"3i8lkN5J",0.448172699892893
"ADHD","start_with_long_delay"," test",5,7,3,2,4,2,4,0.45,0.65," left",1,0.35,0.45,0.55,0.65,0,1,60,1,6,0.5,1,"3i8lkN5J",1.2988083998207
"ADHD","start_with_long_delay"," test",5,7,4,3,2,2,3,0.55,0.45," right",2,0.35,0.45,0.55,0.65,1,2,61,1,6,0.5,1,"3i8lkN5J",1.26768070016988
"ADHD","start_with_long_delay"," test",5,7,5,2,4,4,2,0.45,0.65," right",2,0.35,0.45,0.55,0.65,1,3,62,1,6,0.5,1,"3i8lkN5J",0.900824399897829
"ADHD","start_with_long_delay"," test",5,7,6,1,3,3,1,0.35,0.55," right",2,0.35,0.45,0.55,0.65,0,3,62,1,6,0.5,1,"3i8lkN5J",0.570459600072354
"ADHD","start_with_long_delay"," test",5,7,7,3,4,4,3,0.55,0.65," right",2,0.35,0.45,0.55,0.65,0,3,62,1,6,0.5,1,"3i8lkN5J",0.731135600013658
"ADHD","start_with_long_delay"," test",5,7,8,3,1,3,1,0.55,0.35," left",1,0.35,0.45,0.55,0.65,0,3,62,1,6,0.5,1,"3i8lkN5J",0.939548800000921
"ADHD","start_with_long_delay"," test",5,7,9,2,3,2,3,0.45,0.55," left",1,0.35,0.45,0.55,0.65,1,4,63,1,6,0.5,1,"3i8lkN5J",0.789535199990496
"ADHD","start_with_long_delay"," test",5,7,10,2,1,2,1,0.45,0.35," left",1,0.35,0.45,0.55,0.65,1,5,64,1,6,0.5,1,"3i8lkN5J",0.424376800190657
"ADHD","start_with_long_delay"," test",5,7,11,2,1,2,1,0.45,0.35," left",1,0.35,0.45,0.55,0.65,0,5,64,1,6,0.5,1,"3i8lkN5J",0.731118299998343
"ADHD","start_with_long_delay"," test",5,7,12,2,4,4,2,0.45,0.65," right",2,0.35,0.45,0.55,0.65,0,5,64,1,6,0.5,1,"3i8lkN5J",0.490738600026816
"ADHD","start_with_long_delay"," test",5,7,13,3,1,1,3,0.55,0.35," right",2,0.35,0.45,0.55,0.65,1,6,65,1,6,0.5,1,"3i8lkN5J",0.208558900048956
"ADHD","start_with_long_delay"," test",5,7,14,4,1,4,1,0.65,0.35," left",1,0.35,0.45,0.55,0.65,1,7,66,1,6,0.5,1,"3i8lkN5J",1.22786149987951
"ADHD","start_with_long_delay"," test",5,7,15,2,1,2,1,0.45,0.35," left",1,0.35,0.45,0.55,0.65,0,7,66,1,6,0.5,1,"3i8lkN5J",0.928067200118676
"ADHD","start_with_long_delay"," test",5,7,16,3,4,4,3,0.55,0.65," right",2,0.35,0.45,0.55,0.65,1,8,67,1,6,0.5,1,"3i8lkN5J",0.74107989994809
"ADHD","start_with_long_delay"," test",5,7,17,3,4,3,4,0.55,0.65," left",1,0.35,0.45,0.55,0.65,0,8,67,1,6,0.5,1,"3i8lkN5J",0.549005500040948
"ADHD","start_with_long_delay"," test",5,7,18,3,1,3,1,0.55,0.35," left",1,0.35,0.45,0.55,0.65,0,8,67,1,6,0.5,1,"3i8lkN5J",0.687597000040114
"ADHD","start_with_long_delay"," test",5,7,19,3,2,2,3,0.55,0.45," right",2,0.35,0.45,0.55,0.65,1,9,68,1,6,0.5,1,"3i8lkN5J",1.02418849989772
"ADHD","start_with_long_delay"," test",5,7,20,2,1,1,2,0.45,0.35," right",2,0.35,0.45,0.55,0.65,0,9,68,1,6,0.5,1,"3i8lkN5J",0.699260100023821
"ADHD","start_with_long_delay"," test",5,7,21,2,4,4,2,0.45,0.65," right",2,0.35,0.45,0.55,0.65,1,10,69,1,6,0.5,1,"3i8lkN5J",0.745666099945083
"ADHD","start_with_long_delay"," test",5,7,22,1,4,1,4,0.35,0.65," left",1,0.35,0.45,0.55,0.65,0,10,69,1,6,0.5,1,"3i8lkN5J",0.899948799982667
"ADHD","start_with_long_delay"," test",5,7,23,2,3,2,3,0.45,0.55," left",1,0.35,0.45,0.55,0.65,1,11,70,1,6,0.5,1,"3i8lkN5J",1.13557219994254
"ADHD","start_with_long_delay"," test",5,7,24,3,1,3,1,0.55,0.35," left",1,0.35,0.45,0.55,0.65,1,12,71,1,6,0.5,1,"3i8lkN5J",0.722911899909377
"ADHD","start_with_long_delay"," test",5,7,25,3,4,3,4,0.55,0.65," left",1,0.35,0.45,0.55,0.65,0,12,71,1,6,0.5,1,"3i8lkN5J",0.783639499917626
"ADHD","start_with_long_delay"," test",6,1,1,1,4,4,1,0.35,0.65," right",2,0.35,0.45,0.55,0.65,0,0,71,1,6,0.5,1,"3i8lkN5J",0.658968799980357
"ADHD","start_with_long_delay"," test",6,1,2,2,1,2,1,0.45,0.35," left",1,0.35,0.45,0.55,0.65,1,1,72,1,6,0.5,1,"3i8lkN5J",0.529416200006381
"ADHD","start_with_long_delay"," test",6,1,3,2,1,2,1,0.45,0.35," left",1,0.35,0.45,0.55,0.65,0,1,72,1,6,0.5,1,"3i8lkN5J",0.921668600058183
"ADHD","start_with_long_delay"," test",6,1,4,4,1,1,4,0.65,0.35," right",2,0.35,0.45,0.55,0.65,1,2,73,1,6,0.5,1,"3i8lkN5J",0.756429499946535
"ADHD","start_with_long_delay"," test",6,1,5,4,3,3,4,0.65,0.55," right",2,0.35,0.45,0.55,0.65,1,3,74,1,6,0.5,1,"3i8lkN5J",0.576713099842891
"ADHD","start_with_long_delay"," test",6,1,6,2,3,3,2,0.45,0.55," right",2,0.35,0.45,0.55,0.65,0,3,74,1,6,0.5,1,"3i8lkN5J",2.32903649983928
"ADHD","start_with_long_delay"," test",6,1,7,4,2,4,2,0.65,0.45," left",1,0.35,0.45,0.55,0.65,0,3,74,1,6,0.5,1,"3i8lkN5J",0.408119099913165
"ADHD","start_with_long_delay"," test",6,1,8,2,1,2,1,0.45,0.35," left",1,0.35,0.45,0.55,0.65,1,4,75,1,6,0.5,1,"3i8lkN5J",0.929389500059187
"ADHD","start_with_long_delay"," test",6,1,9,2,3,3,2,0.45,0.55," right",2,0.35,0.45,0.55,0.65,1,5,76,1,6,0.5,1,"3i8lkN5J",1.42865239991806
"ADHD","start_with_long_delay"," test",6,1,10,4,1,1,4,0.65,0.35," right",2,0.35,0.45,0.55,0.65,0,5,76,1,6,0.5,1,"3i8lkN5J",0.893945799907669
"ADHD","start_with_long_delay"," test",6,1,11,2,1,1,2,0.45,0.35," right",2,0.35,0.45,0.55,0.65,1,6,77,1,6,0.5,1,"3i8lkN5J",0.663257400039583
"ADHD","start_with_long_delay"," test",6,1,12,2,1,2,1,0.45,0.35," left",1,0.35,0.45,0.55,0.65,0,6,77,1,6,0.5,1,"3i8lkN5J",0.923746400047094
"ADHD","start_with_long_delay"," test",6,1,13,1,3,3,1,0.35,0.55," right",2,0.35,0.45,0.55,0.65,0,6,77,1,6,0.5,1,"3i8lkN5J",0.931790699949488
"ADHD","start_with_long_delay"," test",6,1,14,2,1,2,1,0.45,0.35," left",1,0.35,0.45,0.55,0.65,0,6,77,1,6,0.5,1,"3i8lkN5J",0.707429099828005
"ADHD","start_with_long_delay"," test",6,1,15,3,1,1,3,0.55,0.35," right",2,0.35,0.45,0.55,0.65,1,7,78,1,6,0.5,1,"3i8lkN5J",0.692450899863616
"ADHD","start_with_long_delay"," test",6,1,16,3,1,3,1,0.55,0.35," left",1,0.35,0.45,0.55,0.65,0,7,78,1,6,0.5,1,"3i8lkN5J",0.557998199947178
"ADHD","start_with_long_delay"," test",6,1,17,4,3,4,3,0.65,0.55," left",1,0.35,0.45,0.55,0.65,1,8,79,1,6,0.5,1,"3i8lkN5J",0.33635829994455
"ADHD","start_with_long_delay"," test",6,1,18,3,1,3,1,0.55,0.35," left",1,0.35,0.45,0.55,0.65,0,8,79,1,6,0.5,1,"3i8lkN5J",1.13946820003912
"ADHD","start_with_long_delay"," test",6,1,19,2,3,2,3,0.45,0.55," left",1,0.35,0.45,0.55,0.65,1,9,80,1,6,0.5,1,"3i8lkN5J",1.38744849991053
"ADHD","start_with_long_delay"," test",6,1,20,4,1,1,4,0.65,0.35," right",2,0.35,0.45,0.55,0.65,0,9,80,1,6,0.5,1,"3i8lkN5J",0.512670600088313
"ADHD","start_with_long_delay"," test",6,1,21,2,3,3,2,0.45,0.55," right",2,0.35,0.45,0.55,0.65,1,10,81,1,6,0.5,1,"3i8lkN5J",0.99610190000385
"ADHD","start_with_long_delay"," test",6,1,22,2,1,1,2,0.45,0.35," right",2,0.35,0.45,0.55,0.65,1,11,82,1,6,0.5,1,"3i8lkN5J",0.632442299975082
"ADHD","start_with_long_delay"," test",6,1,23,4,2,2,4,0.65,0.45," right",2,0.35,0.45,0.55,0.65,1,12,83,1,6,0.5,1,"3i8lkN5J",0.657074199989438
"ADHD","start_with_long_delay"," test",6,1,24,4,1,4,1,0.65,0.35," left",1,0.35,0.45,0.55,0.65,0,12,83,1,6,0.5,1,"3i8lkN5J",0.506391099886969
"ADHD","start_with_long_delay"," test",6,1,25,3,1,1,3,0.55,0.35," right",2,0.35,0.45,0.55,0.65,0,12,83,1,6,0.5,1,"3i8lkN5J",0.531102299923077
"ADHD","start_with_long_delay"," test",7,7,1,3,4,3,4,0.55,0.65," left",1,0.35,0.45,0.55,0.65,0,0,83,1,6,0.5,1,"3i8lkN5J",1.51862189988606
"ADHD","start_with_long_delay"," test",7,7,2,2,1,1,2,0.45,0.35," right",2,0.35,0.45,0.55,0.65,0,0,83,1,6,0.5,1,"3i8lkN5J",1.30261110002175
"ADHD","start_with_long_delay"," test",7,7,3,2,3,3,2,0.45,0.55," right",2,0.35,0.45,0.55,0.65,0,0,83,1,6,0.5,1,"3i8lkN5J",1.0650182000827
"ADHD","start_with_long_delay"," test",7,7,4,4,2,4,2,0.65,0.45," left",1,0.35,0.45,0.55,0.65,1,1,84,1,6,0.5,1,"3i8lkN5J",0.734478800091892
"ADHD","start_with_long_delay"," test",7,7,5,4,2,4,2,0.65,0.45," left",1,0.35,0.45,0.55,0.65,1,2,85,1,6,0.5,1,"3i8lkN5J",0.357832100009546
"ADHD","start_with_long_delay"," test",7,7,6,3,2,3,2,0.55,0.45," left",1,0.35,0.45,0.55,0.65,0,2,85,1,6,0.5,1,"3i8lkN5J",1.88803709996864
"ADHD","start_with_long_delay"," test",7,7,7,1,3,3,1,0.35,0.55," right",2,0.35,0.45,0.55,0.65,0,2,85,1,6,0.5,1,"3i8lkN5J",0.854194700019434
"ADHD","start_with_long_delay"," test",7,7,8,1,2,2,1,0.35,0.45," right",2,0.35,0.45,0.55,0.65,1,3,86,1,6,0.5,1,"3i8lkN5J",0.607727299910039
"ADHD","start_with_long_delay"," test",7,7,9,3,2,2,3,0.55,0.45," right",2,0.35,0.45,0.55,0.65,1,4,87,1,6,0.5,1,"3i8lkN5J",1.6972647998482
"ADHD","start_with_long_delay"," test",7,7,10,4,1,4,1,0.65,0.35," left",1,0.35,0.45,0.55,0.65,1,5,88,1,6,0.5,1,"3i8lkN5J",0.796784600010142
"ADHD","start_with_long_delay"," test",7,7,11,4,2,2,4,0.65,0.45," right",2,0.35,0.45,0.55,0.65,0,5,88,1,6,0.5,1,"3i8lkN5J",0.980740000028163
"ADHD","start_with_long_delay"," test",7,7,12,4,1,4,1,0.65,0.35," left",1,0.35,0.45,0.55,0.65,0,5,88,1,6,0.5,1,"3i8lkN5J",0.74700290011242
"ADHD","start_with_long_delay"," test",7,7,13,1,3,3,1,0.35,0.55," right",2,0.35,0.45,0.55,0.65,1,6,89,1,6,0.5,1,"3i8lkN5J",1.08072330011055
"ADHD","start_with_long_delay"," test",7,7,14,4,1,4,1,0.65,0.35," left",1,0.35,0.45,0.55,0.65,0,6,89,1,6,0.5,1,"3i8lkN5J",0.44284710008651
"ADHD","start_with_long_delay"," test",7,7,15,1,3,1,3,0.35,0.55," left",1,0.35,0.45,0.55,0.65,1,7,90,1,6,0.5,1,"3i8lkN5J",0.765621199971065
"ADHD","start_with_long_delay"," test",7,7,16,4,1,1,4,0.65,0.35," right",2,0.35,0.45,0.55,0.65,0,7,90,1,6,0.5,1,"3i8lkN5J",1.0690005000215
"ADHD","start_with_long_delay"," test",7,7,17,4,3,3,4,0.65,0.55," right",2,0.35,0.45,0.55,0.65,1,8,91,1,6,0.5,1,"3i8lkN5J",0.630516099976376
"ADHD","start_with_long_delay"," test",7,7,18,4,1,4,1,0.65,0.35," left",1,0.35,0.45,0.55,0.65,0,8,91,1,6,0.5,1,"3i8lkN5J",0.729588200105354
"ADHD","start_with_long_delay"," test",7,7,19,1,2,2,1,0.35,0.45," right",2,0.35,0.45,0.55,0.65,0,8,91,1,6,0.5,1,"3i8lkN5J",1.0077724000439
"ADHD","start_with_long_delay"," test",7,7,20,4,1,1,4,0.65,0.35," right",2,0.35,0.45,0.55,0.65,0,8,91,1,6,0.5,1,"3i8lkN5J",3.13679849985056
"ADHD","start_with_long_delay"," test",7,7,21,4,3,3,4,0.65,0.55," right",2,0.35,0.45,0.55,0.65,1,9,92,1,6,0.5,1,"3i8lkN5J",0.749515000032261
"ADHD","start_with_long_delay"," test",7,7,22,4,1,1,4,0.65,0.35," right",2,0.35,0.45,0.55,0.65,1,10,93,1,6,0.5,1,"3i8lkN5J",0.647850200068206
"ADHD","start_with_long_delay"," test",7,7,23,1,3,1,3,0.35,0.55," left",1,0.35,0.45,0.55,0.65,0,10,93,1,6,0.5,1,"3i8lkN5J",1.12651120009832
"ADHD","start_with_long_delay"," test",7,7,24,4,3,3,4,0.65,0.55," right",2,0.35,0.45,0.55,0.65,1,11,94,1,6,0.5,1,"3i8lkN5J",0.66107919998467
"ADHD","start_with_long_delay"," test",7,7,25,4,3,3,4,0.65,0.55," right",2,0.35,0.45,0.55,0.65,0,11,94,1,6,0.5,1,"3i8lkN5J",0.656191800022498
"ADHD","start_with_long_delay"," test",8,1,1,1,3,3,1,0.35,0.55," right",2,0.35,0.45,0.55,0.65,1,1,95,1,6,0.5,1,"3i8lkN5J",1.7326396999415
"ADHD","start_with_long_delay"," test",8,1,2,4,3,3,4,0.65,0.55," right",2,0.35,0.45,0.55,0.65,1,2,96,1,6,0.5,1,"3i8lkN5J",0.912959799868986
"ADHD","start_with_long_delay"," test",8,1,3,4,3,3,4,0.65,0.55," right",2,0.35,0.45,0.55,0.65,0,2,96,1,6,0.5,1,"3i8lkN5J",0.992967400001362
"ADHD","start_with_long_delay"," test",8,1,4,1,3,1,3,0.35,0.55," left",1,0.35,0.45,0.55,0.65,0,2,96,1,6,0.5,1,"3i8lkN5J",0.634643899975345
"ADHD","start_with_long_delay"," test",8,1,5,4,2,2,4,0.65,0.45," right",2,0.35,0.45,0.55,0.65,1,3,97,1,6,0.5,1,"3i8lkN5J",0.564280799822882
"ADHD","start_with_long_delay"," test",8,1,6,1,3,3,1,0.35,0.55," right",2,0.35,0.45,0.55,0.65,1,4,98,1,6,0.5,1,"3i8lkN5J",1.28760970011353
"ADHD","start_with_long_delay"," test",8,1,7,1,3,1,3,0.35,0.55," left",1,0.35,0.45,0.55,0.65,0,4,98,1,6,0.5,1,"3i8lkN5J",0.644838500069454
"ADHD","start_with_long_delay"," test",8,1,8,4,2,4,2,0.65,0.45," left",1,0.35,0.45,0.55,0.65,1,5,99,1,6,0.5,1,"3i8lkN5J",0.732130199903622
"ADHD","start_with_long_delay"," test",8,1,9,1,2,1,2,0.35,0.45," left",1,0.35,0.45,0.55,0.65,0,5,99,1,6,0.5,1,"3i8lkN5J",0.827476699836552
"ADHD","start_with_long_delay"," test",8,1,10,4,3,4,3,0.65,0.55," left",1,0.35,0.45,0.55,0.65,1,6,100,1,6,0.5,1,"3i8lkN5J",1.44724530004896
"ADHD","start_with_long_delay"," test",8,1,11,1,4,1,4,0.35,0.65," left",1,0.35,0.45,0.55,0.65,0,6,100,1,6,0.5,1,"3i8lkN5J",0.746039099991322
"ADHD","start_with_long_delay"," test",8,1,12,4,2,4,2,0.65,0.45," left",1,0.35,0.45,0.55,0.65,1,7,101,1,6,0.5,1,"3i8lkN5J",0.675526600098237
"ADHD","start_with_long_delay"," test",8,1,13,4,2,2,4,0.65,0.45," right",2,0.35,0.45,0.55,0.65,0,7,101,1,6,0.5,1,"3i8lkN5J",0.931279200129211
"ADHD","start_with_long_delay"," test",8,1,14,2,3,2,3,0.45,0.55," left",1,0.35,0.45,0.55,0.65,1,8,102,1,6,0.5,1,"3i8lkN5J",1.65337099996395
"ADHD","start_with_long_delay"," test",8,1,15,1,2,1,2,0.35,0.45," left",1,0.35,0.45,0.55,0.65,0,8,102,1,6,0.5,1,"3i8lkN5J",0.857256500050426
"ADHD","start_with_long_delay"," test",8,1,16,2,4,4,2,0.45,0.65," right",2,0.35,0.45,0.55,0.65,0,8,102,1,6,0.5,1,"3i8lkN5J",0.471992700127885
"ADHD","start_with_long_delay"," test",8,1,17,2,3,3,2,0.45,0.55," right",2,0.35,0.45,0.55,0.65,0,8,102,1,6,0.5,1,"3i8lkN5J",0.820248499978334
"ADHD","start_with_long_delay"," test",8,1,18,1,4,4,1,0.35,0.65," right",2,0.35,0.45,0.55,0.65,1,9,103,1,6,0.5,1,"3i8lkN5J",1.00870890007354
"ADHD","start_with_long_delay"," test",8,1,19,3,4,4,3,0.55,0.65," right",2,0.35,0.45,0.55,0.65,1,10,104,1,6,0.5,1,"3i8lkN5J",0.676628799876198
"ADHD","start_with_long_delay"," test",8,1,20,2,3,3,2,0.45,0.55," right",2,0.35,0.45,0.55,0.65,1,11,105,1,6,0.5,1,"3i8lkN5J",1.98411189997569
"ADHD","start_with_long_delay"," test",8,1,21,1,2,2,1,0.35,0.45," right",2,0.35,0.45,0.55,0.65,0,11,105,1,6,0.5,1,"3i8lkN5J",1.18540519988164
"ADHD","start_with_long_delay"," test",8,1,22,2,1,2,1,0.45,0.35," left",1,0.35,0.45,0.55,0.65,1,12,106,1,6,0.5,1,"3i8lkN5J",1.9062191999983
"ADHD","start_with_long_delay"," test",8,1,23,4,2,4,2,0.65,0.45," left",1,0.35,0.45,0.55,0.65,1,13,107,1,6,0.5,1,"3i8lkN5J",1.19875660003163
"ADHD","start_with_long_delay"," test",8,1,24,2,3,3,2,0.45,0.55," right",2,0.35,0.45,0.55,0.65,0,13,107,1,6,0.5,1,"3i8lkN5J",1.31421019998379
"ADHD","start_with_long_delay"," test",8,1,25,2,3,2,3,0.45,0.55," left",1,0.35,0.45,0.55,0.65,0,13,107,1,6,0.5,1,"3i8lkN5J",0.742074300069362
"ADHD","start_with_long_delay"," practice",1,1,1,1,4,4,1,0.35,0.65," right",2,0.35,0.45,0.55,0.65,0,0,0,1,6,0.5,1,"3pcOJtnn",1.948266899999
"ADHD","start_with_long_delay"," practice",1,1,2,3,2,3,2,0.55,0.45," left",1,0.35,0.45,0.55,0.65,1,1,1,1,6,0.5,1,"3pcOJtnn",1.48293140000897
"ADHD","start_with_long_delay"," practice",1,1,3,2,1,2,1,0.45,0.35," left",1,0.35,0.45,0.55,0.65,0,1,1,1,6,0.5,1,"3pcOJtnn",1.78856930002803
"ADHD","start_with_long_delay"," practice",1,1,4,3,1,3,1,0.55,0.35," left",1,0.35,0.45,0.55,0.65,0,1,1,1,6,0.5,1,"3pcOJtnn",0.649098099995172
"ADHD","start_with_long_delay"," practice",1,1,5,3,1,1,3,0.55,0.35," right",2,0.35,0.45,0.55,0.65,1,2,2,1,6,0.5,1,"3pcOJtnn",2.00069459999213
"ADHD","start_with_long_delay"," test",1,7,1,1,4,4,1,0.35,0.65," right",2,0.35,0.45,0.55,0.65,0,0,2,1,6,0.5,1,"3pcOJtnn",0.828695399977732
"ADHD","start_with_long_delay"," test",1,7,2,4,3,4,3,0.65,0.55," left",1,0.35,0.45,0.55,0.65,1,1,3,1,6,0.5,1,"3pcOJtnn",0.800073699996574
"ADHD","start_with_long_delay"," test",1,7,3,3,2,2,3,0.55,0.45," right",2,0.35,0.45,0.55,0.65,1,2,4,1,6,0.5,1,"3pcOJtnn",1.40494090001448
"ADHD","start_with_long_delay"," test",1,7,4,1,2,1,2,0.35,0.45," left",1,0.35,0.45,0.55,0.65,0,2,4,1,6,0.5,1,"3pcOJtnn",1.09809360001236
"ADHD","start_with_long_delay"," test",1,7,5,2,1,1,2,0.45,0.35," right",2,0.35,0.45,0.55,0.65,1,3,5,1,6,0.5,1,"3pcOJtnn",1.97829739999725
"ADHD","start_with_long_delay"," test",1,7,6,2,1,2,1,0.45,0.35," left",1,0.35,0.45,0.55,0.65,1,4,6,1,6,0.5,1,"3pcOJtnn",2.57881690000067
"ADHD","start_with_long_delay"," test",1,7,7,2,3,2,3,0.45,0.55," left",1,0.35,0.45,0.55,0.65,0,4,6,1,6,0.5,1,"3pcOJtnn",0.617366799997399
"ADHD","start_with_long_delay"," test",1,7,8,3,1,1,3,0.55,0.35," right",2,0.35,0.45,0.55,0.65,0,4,6,1,6,0.5,1,"3pcOJtnn",1.09213259999524
"ADHD","start_with_long_delay"," test",1,7,9,3,2,2,3,0.55,0.45," right",2,0.35,0.45,0.55,0.65,0,4,6,1,6,0.5,1,"3pcOJtnn",1.22495450000861
"ADHD","start_with_long_delay"," test",1,7,10,2,3,3,2,0.45,0.55," right",2,0.35,0.45,0.55,0.65,1,5,7,1,6,0.5,1,"3pcOJtnn",1.41769639999256
"ADHD","start_with_long_delay"," test",1,7,11,4,1,1,4,0.65,0.35," right",2,0.35,0.45,0.55,0.65,1,6,8,1,6,0.5,1,"3pcOJtnn",1.32570810001926
"ADHD","start_with_long_delay"," test",1,7,12,2,1,2,1,0.45,0.35," left",1,0.35,0.45,0.55,0.65,1,7,9,1,6,0.5,1,"3pcOJtnn",1.3806273000082
"ADHD","start_with_long_delay"," test",1,7,13,2,1,1,2,0.45,0.35," right",2,0.35,0.45,0.55,0.65,0,7,9,1,6,0.5,1,"3pcOJtnn",1.04359660000773
"ADHD","start_with_long_delay"," test",1,7,14,3,1,3,1,0.55,0.35," left",1,0.35,0.45,0.55,0.65,1,8,10,1,6,0.5,1,"3pcOJtnn",1.25762290001148
"ADHD","start_with_long_delay"," test",1,7,15,3,1,3,1,0.55,0.35," left",1,0.35,0.45,0.55,0.65,0,8,10,1,6,0.5,1,"3pcOJtnn",1.08827970002312
"ADHD","start_with_long_delay"," test",1,7,16,1,4,1,4,0.35,0.65," left",1,0.35,0.45,0.55,0.65,0,8,10,1,6,0.5,1,"3pcOJtnn",2.63771650000126
"ADHD","start_with_long_delay"," test",1,7,17,2,1,1,2,0.45,0.35," right",2,0.35,0.45,0.55,0.65,0,8,10,1,6,0.5,1,"3pcOJtnn",0.905542299995432
"ADHD","start_with_long_delay"," test",1,7,18,4,3,4,3,0.65,0.55," left",1,0.35,0.45,0.55,0.65,1,9,11,1,6,0.5,1,"3pcOJtnn",0.453355799982091
"ADHD","start_with_long_delay"," test",1,7,19,4,2,4,2,0.65,0.45," left",1,0.35,0.45,0.55,0.65,1,10,12,1,6,0.5,1,"3pcOJtnn",0.447686100000283
"ADHD","start_with_long_delay"," test",1,7,20,3,2,3,2,0.55,0.45," left",1,0.35,0.45,0.55,0.65,1,11,13,1,6,0.5,1,"3pcOJtnn",1.97762019999209
"ADHD","start_with_long_delay"," test",1,7,21,3,2,2,3,0.55,0.45," right",2,0.35,0.45,0.55,0.65,1,12,14,1,6,0.5,1,"3pcOJtnn",0.723283100000117
"ADHD","start_with_long_delay"," test",1,7,22,4,3,3,4,0.65,0.55," right",2,0.35,0.45,0.55,0.65,0,12,14,1,6,0.5,1,"3pcOJtnn",1.66080549999606
"ADHD","start_with_long_delay"," test",1,7,23,3,2,3,2,0.55,0.45," left",1,0.35,0.45,0.55,0.65,1,13,15,1,6,0.5,1,"3pcOJtnn",0.510362800006988
"ADHD","start_with_long_delay"," test",1,7,24,1,2,2,1,0.35,0.45," right",2,0.35,0.45,0.55,0.65,0,13,15,1,6,0.5,1,"3pcOJtnn",2.29448700000648
"ADHD","start_with_long_delay"," test",1,7,25,4,1,1,4,0.65,0.35," right",2,0.35,0.45,0.55,0.65,0,13,15,1,6,0.5,1,"3pcOJtnn",0.88396959999227
"ADHD","start_with_long_delay"," test",2,1,1,3,2,2,3,0.55,0.45," right",2,0.35,0.45,0.55,0.65,0,0,15,1,6,0.5,1,"3pcOJtnn",0.483309000002919
"ADHD","start_with_long_delay"," test",2,1,2,4,2,2,4,0.65,0.45," right",2,0.35,0.45,0.55,0.65,0,0,15,1,6,0.5,1,"3pcOJtnn",1.13311599998269
"ADHD","start_with_long_delay"," test",2,1,3,3,4,3,4,0.55,0.65," left",1,0.35,0.45,0.55,0.65,0,0,15,1,6,0.5,1,"3pcOJtnn",0.623576699988917
"ADHD","start_with_long_delay"," test",2,1,4,2,1,1,2,0.45,0.35," right",2,0.35,0.45,0.55,0.65,0,0,15,1,6,0.5,1,"3pcOJtnn",0.764524199999869
"ADHD","start_with_long_delay"," test",2,1,5,2,3,2,3,0.45,0.55," left",1,0.35,0.45,0.55,0.65,0,0,15,1,6,0.5,1,"3pcOJtnn",0.969633000000613
"ADHD","start_with_long_delay"," test",2,1,6,4,3,3,4,0.65,0.55," right",2,0.35,0.45,0.55,0.65,0,0,15,1,6,0.5,1,"3pcOJtnn",1.92343999998411
"ADHD","start_with_long_delay"," test",2,1,7,2,4,2,4,0.45,0.65," left",1,0.35,0.45,0.55,0.65,1,1,16,1,6,0.5,1,"3pcOJtnn",0.5553470000159
"ADHD","start_with_long_delay"," test",2,1,8,1,2,2,1,0.35,0.45," right",2,0.35,0.45,0.55,0.65,0,1,16,1,6,0.5,1,"3pcOJtnn",0.933971199992811
"ADHD","start_with_long_delay"," test",2,1,9,4,3,3,4,0.65,0.55," right",2,0.35,0.45,0.55,0.65,1,2,17,1,6,0.5,1,"3pcOJtnn",1.55791580001824
"ADHD","start_with_long_delay"," test",2,1,10,2,1,1,2,0.45,0.35," right",2,0.35,0.45,0.55,0.65,0,2,17,1,6,0.5,1,"3pcOJtnn",1.94802310000523
"ADHD","start_with_long_delay"," test",2,1,11,4,3,3,4,0.65,0.55," right",2,0.35,0.45,0.55,0.65,1,3,18,1,6,0.5,1,"3pcOJtnn",1.07422489998862
"ADHD","start_with_long_delay"," test",2,1,12,4,2,4,2,0.65,0.45," left",1,0.35,0.45,0.55,0.65,1,4,19,1,6,0.5,1,"3pcOJtnn",2.06190040000365
"ADHD","start_with_long_delay"," test",2,1,13,4,3,4,3,0.65,0.55," left",1,0.35,0.45,0.55,0.65,1,5,20,1,6,0.5,1,"3pcOJtnn",0.574396700016223
"ADHD","start_with_long_delay"," test",2,1,14,4,1,1,4,0.65,0.35," right",2,0.35,0.45,0.55,0.65,1,6,21,1,6,0.5,1,"3pcOJtnn",0.368138200021349
"ADHD","start_with_long_delay"," test",2,1,15,2,3,3,2,0.45,0.55," right",2,0.35,0.45,0.55,0.65,0,6,21,1,6,0.5,1,"3pcOJtnn",1.32214899998507
"ADHD","start_with_long_delay"," test",2,1,16,1,2,1,2,0.35,0.45," left",1,0.35,0.45,0.55,0.65,0,6,21,1,6,0.5,1,"3pcOJtnn",0.94311339998967
"ADHD","start_with_long_delay"," test",2,1,17,4,3,3,4,0.65,0.55," right",2,0.35,0.45,0.55,0.65,1,7,22,1,6,0.5,1,"3pcOJtnn",0.694672200013883
"ADHD","start_with_long_delay"," test",2,1,18,3,2,2,3,0.55,0.45," right",2,0.35,0.45,0.55,0.65,1,8,23,1,6,0.5,1,"3pcOJtnn",2.08717410001555
"ADHD","start_with_long_delay"," test",2,1,19,4,3,4,3,0.65,0.55," left",1,0.35,0.45,0.55,0.65,1,9,24,1,6,0.5,1,"3pcOJtnn",0.849667700007558
"ADHD","start_with_long_delay"," test",2,1,20,2,1,1,2,0.45,0.35," right",2,0.35,0.45,0.55,0.65,0,9,24,1,6,0.5,1,"3pcOJtnn",1.74841720002587
"ADHD","start_with_long_delay"," test",2,1,21,4,3,4,3,0.65,0.55," left",1,0.35,0.45,0.55,0.65,0,9,24,1,6,0.5,1,"3pcOJtnn",0.413264900009381
"ADHD","start_with_long_delay"," test",2,1,22,4,3,3,4,0.65,0.55," right",2,0.35,0.45,0.55,0.65,1,10,25,1,6,0.5,1,"3pcOJtnn",0.337559000006877
"ADHD","start_with_long_delay"," test",2,1,23,4,3,3,4,0.65,0.55," right",2,0.35,0.45,0.55,0.65,0,10,25,1,6,0.5,1,"3pcOJtnn",0.346219099999871
"ADHD","start_with_long_delay"," test",2,1,24,4,3,4,3,0.65,0.55," left",1,0.35,0.45,0.55,0.65,0,10,25,1,6,0.5,1,"3pcOJtnn",0.340610099985497
"ADHD","start_with_long_delay"," test",2,1,25,1,2,1,2,0.35,0.45," left",1,0.35,0.45,0.55,0.65,1,11,26,1,6,0.5,1,"3pcOJtnn",1.26328980000108
"ADHD","start_with_long_delay"," test",3,7,1,3,2,3,2,0.55,0.45," left",1,0.35,0.45,0.55,0.65,1,1,27,1,6,0.5,1,"3pcOJtnn",0.872658000007505
"ADHD","start_with_long_delay"," test",3,7,2,3,4,4,3,0.55,0.65," right",2,0.35,0.45,0.55,0.65,1,2,28,1,6,0.5,1,"3pcOJtnn",0.7497524000064
"ADHD","start_with_long_delay"," test",3,7,3,3,4,3,4,0.55,0.65," left",1,0.35,0.45,0.55,0.65,0,2,28,1,6,0.5,1,"3pcOJtnn",0.841093700000783
"ADHD","start_with_long_delay"," test",3,7,4,3,4,4,3,0.55,0.65," right",2,0.35,0.45,0.55,0.65,1,3,29,1,6,0.5,1,"3pcOJtnn",1.41980949998833
"ADHD","start_with_long_delay"," test",3,7,5,4,1,4,1,0.65,0.35," left",1,0.35,0.45,0.55,0.65,1,4,30,1,6,0.5,1,"3pcOJtnn",1.89610519999405
"ADHD","start_with_long_delay"," test",3,7,6,3,4,3,4,0.55,0.65," left",1,0.35,0.45,0.55,0.65,0,4,30,1,6,0.5,1,"3pcOJtnn",0.804547099978663
"ADHD","start_with_long_delay"," test",3,7,7,2,3,2,3,0.45,0.55," left",1,0.35,0.45,0.55,0.65,0,4,30,1,6,0.5,1,"3pcOJtnn",0.954346200014697
"ADHD","start_with_long_delay"," test",3,7,8,4,3,4,3,0.65,0.55," left",1,0.35,0.45,0.55,0.65,1,5,31,1,6,0.5,1,"3pcOJtnn",1.76867600000696
"ADHD","start_with_long_delay"," test",3,7,9,1,2,1,2,0.35,0.45," left",1,0.35,0.45,0.55,0.65,1,6,32,1,6,0.5,1,"3pcOJtnn",1.879165499995
"ADHD","start_with_long_delay"," test",3,7,10,1,4,4,1,0.35,0.65," right",2,0.35,0.45,0.55,0.65,0,6,32,1,6,0.5,1,"3pcOJtnn",0.864357700018445
"ADHD","start_with_long_delay"," test",3,7,11,4,2,4,2,0.65,0.45," left",1,0.35,0.45,0.55,0.65,0,6,32,1,6,0.5,1,"3pcOJtnn",1.43304720000015
"ADHD","start_with_long_delay"," test",3,7,12,1,4,4,1,0.35,0.65," right",2,0.35,0.45,0.55,0.65,1,7,33,1,6,0.5,1,"3pcOJtnn",0.785665800009156
"ADHD","start_with_long_delay"," test",3,7,13,3,2,2,3,0.55,0.45," right",2,0.35,0.45,0.55,0.65,1,8,34,1,6,0.5,1,"3pcOJtnn",1.83902650000528
"ADHD","start_with_long_delay"," test",3,7,14,3,1,1,3,0.55,0.35," right",2,0.35,0.45,0.55,0.65,1,9,35,1,6,0.5,1,"3pcOJtnn",0.376697900006548
"ADHD","start_with_long_delay"," test",3,7,15,4,1,4,1,0.65,0.35," left",1,0.35,0.45,0.55,0.65,1,10,36,1,6,0.5,1,"3pcOJtnn",3.20284879999235
"ADHD","start_with_long_delay"," test",3,7,16,4,2,2,4,0.65,0.45," right",2,0.35,0.45,0.55,0.65,0,10,36,1,6,0.5,1,"3pcOJtnn",0.855326800025068
"ADHD","start_with_long_delay"," test",3,7,17,2,4,4,2,0.45,0.65," right",2,0.35,0.45,0.55,0.65,1,11,37,1,6,0.5,1,"3pcOJtnn",2.52211550000357
"ADHD","start_with_long_delay"," test",3,7,18,4,1,1,4,0.65,0.35," right",2,0.35,0.45,0.55,0.65,1,12,38,1,6,0.5,1,"3pcOJtnn",1.09489959999337
"ADHD","start_with_long_delay"," test",3,7,19,4,3,4,3,0.65,0.55," left",1,0.35,0.45,0.55,0.65,1,13,39,1,6,0.5,1,"3pcOJtnn",1.02110199999879
"ADHD","start_with_long_delay"," test",3,7,20,2,3,3,2,0.45,0.55," right",2,0.35,0.45,0.55,0.65,0,13,39,1,6,0.5,1,"3pcOJtnn",1.45594470002106
"ADHD","start_with_long_delay"," test",3,7,21,3,2,2,3,0.55,0.45," right",2,0.35,0.45,0.55,0.65,0,13,39,1,6,0.5,1,"3pcOJtnn",1.19552420001128
"ADHD","start_with_long_delay"," test",3,7,22,2,1,1,2,0.45,0.35," right",2,0.35,0.45,0.55,0.65,0,13,39,1,6,0.5,1,"3pcOJtnn",0.824057999998331
"ADHD","start_with_long_delay"," test",3,7,23,1,2,1,2,0.35,0.45," left",1,0.35,0.45,0.55,0.65,0,13,39,1,6,0.5,1,"3pcOJtnn",0.527403800020693
"ADHD","start_with_long_delay"," test",3,7,24,4,3,3,4,0.65,0.55," right",2,0.35,0.45,0.55,0.65,1,14,40,1,6,0.5,1,"3pcOJtnn",0.982434799982002
"ADHD","start_with_long_delay"," test",3,7,25,3,2,2,3,0.55,0.45," right",2,0.35,0.45,0.55,0.65,0,14,40,1,6,0.5,1,"3pcOJtnn",2.03627360000974
"ADHD","start_with_long_delay"," test",4,1,1,3,1,3,1,0.55,0.35," left",1,0.35,0.45,0.55,0.65,1,1,41,1,6,0.5,1,"3pcOJtnn",0.62180970000918
"ADHD","start_with_long_delay"," test",4,1,2,4,2,2,4,0.65,0.45," right",2,0.35,0.45,0.55,0.65,1,2,42,1,6,0.5,1,"3pcOJtnn",0.676077300013276
"ADHD","start_with_long_delay"," test",4,1,3,3,2,3,2,0.55,0.45," left",1,0.35,0.45,0.55,0.65,1,3,43,1,6,0.5,1,"3pcOJtnn",0.537469599978067
"ADHD","start_with_long_delay"," test",4,1,4,4,2,2,4,0.65,0.45," right",2,0.35,0.45,0.55,0.65,1,4,44,1,6,0.5,1,"3pcOJtnn",0.436745599989081
"ADHD","start_with_long_delay"," test",4,1,5,4,1,4,1,0.65,0.35," left",1,0.35,0.45,0.55,0.65,0,4,44,1,6,0.5,1,"3pcOJtnn",0.868415599979926
"ADHD","start_with_long_delay"," test",4,1,6,2,1,1,2,0.45,0.35," right",2,0.35,0.45,0.55,0.65,1,5,45,1,6,0.5,1,"3pcOJtnn",0.831066500017187
"ADHD","start_with_long_delay"," test",4,1,7,3,2,2,3,0.55,0.45," right",2,0.35,0.45,0.55,0.65,0,5,45,1,6,0.5,1,"3pcOJtnn",1.09843240000191
"ADHD","start_with_long_delay"," test",4,1,8,3,4,3,4,0.55,0.65," left",1,0.35,0.45,0.55,0.65,1,6,46,1,6,0.5,1,"3pcOJtnn",0.882212700002128
"ADHD","start_with_long_delay"," test",4,1,9,3,1,3,1,0.55,0.35," left",1,0.35,0.45,0.55,0.65,0,6,46,1,6,0.5,1,"3pcOJtnn",0.586887500016019
"ADHD","start_with_long_delay"," test",4,1,10,3,1,3,1,0.55,0.35," left",1,0.35,0.45,0.55,0.65,1,7,47,1,6,0.5,1,"3pcOJtnn",0.545351700013271
"ADHD","start_with_long_delay"," test",4,1,11,1,4,1,4,0.35,0.65," left",1,0.35,0.45,0.55,0.65,0,7,47,1,6,0.5,1,"3pcOJtnn",1.24054990001605
"ADHD","start_with_long_delay"," test",4,1,12,4,3,3,4,0.65,0.55," right",2,0.35,0.45,0.55,0.65,0,7,47,1,6,0.5,1,"3pcOJtnn",0.976368300005561
"ADHD","start_with_long_delay"," test",4,1,13,3,4,4,3,0.55,0.65," right",2,0.35,0.45,0.55,0.65,1,8,48,1,6,0.5,1,"3pcOJtnn",0.386213300022064
"ADHD","start_with_long_delay"," test",4,1,14,3,4,4,3,0.55,0.65," right",2,0.35,0.45,0.55,0.65,1,9,49,1,6,0.5,1,"3pcOJtnn",0.579468500014627
"ADHD","start_with_long_delay"," test",4,1,15,1,4,4,1,0.35,0.65," right",2,0.35,0.45,0.55,0.65,0,9,49,1,6,0.5,1,"3pcOJtnn",1.17655450000893
"ADHD","start_with_long_delay"," test",4,1,16,4,1,1,4,0.65,0.35," right",2,0.35,0.45,0.55,0.65,0,9,49,1,6,0.5,1,"3pcOJtnn",0.642616199998884
