ShaharID, group, counterbalance, block_type, block, delay_condition, trial, chosen, unchosen, offer_left_image, offer_right_image, exp_value_chosen, exp_value_unchosen, choice_location, choice_key, exp_value1, exp_value2, exp_value3, exp_value4, RT, reward, coins_per_block, coins_per_task,ITI_duration,rt_deadline,choice_feedback_duration,outcome_duration
tuLZxHUt,100,1, practice, 1, 1, 1, 1, 3, 1, 3, 0.35, 0.55, left, 1, 0.35, 0.45, 0.55, 0.65, 1.4933196000056341, 0, 0.000000,0.000000,1.000000,6.000000,0.500000,1.000000
tuLZxHUt,100,1, practice, 1, 1, 2, 2, 4, 4, 2, 0.45, 0.65, right, 2, 0.35, 0.45, 0.55, 0.65, 0.9099703000392765, 1, 1.000000,1.000000,1.000000,6.000000,0.500000,1.000000
tuLZxHUt,100,1, practice, 1, 1, 3, 3, 4, 4, 3, 0.55, 0.65, right, 2, 0.35, 0.45, 0.55, 0.65, 1.441420599934645, 0, 1.000000,1.000000,1.000000,6.000000,0.500000,1.000000
tuLZxHUt,100,1, practice, 1, 1, 4, 2, 1, 1, 2, 0.45, 0.35, right, 2, 0.35, 0.45, 0.55, 0.65, 1.0325315999798477, 1, 2.000000,2.000000,1.000000,6.000000,0.500000,1.000000
tuLZxHUt,100,1, practice, 1, 1, 5, 2, 4, 2, 4, 0.45, 0.65, left, 1, 0.35, 0.45, 0.55, 0.65, 1.8193005999783054, 0, 2.000000,2.000000,1.000000,6.000000,0.500000,1.000000
tuLZxHUt,100,1, test, 1, 7, 1, 2, 3, 3, 2, 0.45, 0.55, right, 2, 0.35, 0.45, 0.55, 0.65, 0.8352880000602454, 1, 1.000000,3.000000,1.000000,6.000000,0.500000,1.000000
tuLZxHUt,100,1, test, 1, 7, 2, 3, 4, 3, 4, 0.55, 0.65, left, 1, 0.35, 0.45, 0.55, 0.65, 3.0035394000587985, 1, 2.000000,4.000000,1.000000,6.000000,0.500000,1.000000
tuLZxHUt,100,1, test, 1, 7, 3, 2, 3, 3, 2, 0.45, 0.55, right, 2, 0.35, 0.45, 0.55, 0.65, 1.8051669999258593, 0, 2.000000,4.000000,1.000000,6.000000,0.500000,1.000000
tuLZxHUt,100,1, test, 1, 7, 4, 4, 1, 4, 1, 0.65, 0.35, left, 1, 0.35, 0.45, 0.55, 0.65, 2.365633200039156, 1, 3.000000,5.000000,1.000000,6.000000,0.500000,1.000000
tuLZxHUt,100,1, test, 1, 7, 5, 1, 2, 1, 2, 0.35, 0.45, left, 1, 0.35, 0.45, 0.55, 0.65, 1.7796873999759555, 1, 4.000000,6.000000,1.000000,6.000000,0.500000,1.000000
tuLZxHUt,100,1, test, 1, 7, 6, 4, 1, 1, 4, 0.65, 0.35, right, 2, 0.35, 0.45, 0.55, 0.65, 1.4009262999752536, 1, 5.000000,7.000000,1.000000,6.000000,0.500000,1.000000
tuLZxHUt,100,1, test, 1, 7, 7, 3, 4, 3, 4, 0.55, 0.65, left, 1, 0.35, 0.45, 0.55, 0.65, 1.6569701000116765, 0, 5.000000,7.000000,1.000000,6.000000,0.500000,1.000000
tuLZxHUt,100,1, test, 1, 7, 8, 1, 4, 4, 1, 0.35, 0.65, right, 2, 0.35, 0.45, 0.55, 0.65, 1.1395439999178052, 1, 6.000000,8.000000,1.000000,6.000000,0.500000,1.000000
tuLZxHUt,100,1, test, 1, 7, 9, 3, 1, 1, 3, 0.55, 0.35, right, 2, 0.35, 0.45, 0.55, 0.65, 1.3308697999455035, 1, 7.000000,9.000000,1.000000,6.000000,0.500000,1.000000
tuLZxHUt,100,1, test, 1, 7, 10, 4, 2, 2, 4, 0.65, 0.45, right, 2, 0.35, 0.45, 0.55, 0.65, 1.9465397999156266, 1, 8.000000,10.000000,1.000000,6.000000,0.500000,1.000000
tuLZxHUt,100,1, test, 1, 7, 11, 3, 4, 3, 4, 0.55, 0.65, left, 1, 0.35, 0.45, 0.55, 0.65, 1.5155221000313759, 0, 8.000000,10.000000,1.000000,6.000000,0.500000,1.000000
tuLZxHUt,100,1, test, 1, 7, 12, 1, 4, 1, 4, 0.35, 0.65, left, 1, 0.35, 0.45, 0.55, 0.65, 1.236559999990277, 0, 8.000000,10.000000,1.000000,6.000000,0.500000,1.000000
tuLZxHUt,100,1, test, 1, 7, 13, 1, 3, 3, 1, 0.35, 0.55, right, 2, 0.35, 0.45, 0.55, 0.65, 1.8228514000074938, 0, 8.000000,10.000000,1.000000,6.000000,0.500000,1.000000
tuLZxHUt,100,1, test, 1, 7, 14, 4, 1, 4, 1, 0.65, 0.35, left, 1, 0.35, 0.45, 0.55, 0.65, 2.406877400004305, 0, 8.000000,10.000000,1.000000,6.000000,0.500000,1.000000
tuLZxHUt,100,1, test, 1, 7, 15, 4, 3, 3, 4, 0.65, 0.55, right, 2, 0.35, 0.45, 0.55, 0.65, 3.207371799973771, 0, 8.000000,10.000000,1.000000,6.000000,0.500000,1.000000
tuLZxHUt,100,1, test, 1, 7, 16, 2, 1, 1, 2, 0.45, 0.35, right, 2, 0.35, 0.45, 0.55, 0.65, 3.2290055999765173, 0, 8.000000,10.000000,1.000000,6.000000,0.500000,1.000000
tuLZxHUt,100,1, test, 1, 7, 17, 3, 4, 3, 4, 0.55, 0.65, left, 1, 0.35, 0.45, 0.55, 0.65, 1.436125100008212, 1, 9.000000,11.000000,1.000000,6.000000,0.500000,1.000000
tuLZxHUt,100,1, test, 1, 7, 18, 2, 4, 4, 2, 0.45, 0.65, right, 2, 0.35, 0.45, 0.55, 0.65, 1.5026742999907583, 0, 9.000000,11.000000,1.000000,6.000000,0.500000,1.000000
tuLZxHUt,100,1, test, 1, 7, 19, 1, 4, 4, 1, 0.35, 0.65, right, 2, 0.35, 0.45, 0.55, 0.65, 3.4633656999794766, 1, 10.000000,12.000000,1.000000,6.000000,0.500000,1.000000
tuLZxHUt,100,1, test, 1, 7, 20, 2, 1, 1, 2, 0.45, 0.35, right, 2, 0.35, 0.45, 0.55, 0.65, 2.201399900019169, 0, 10.000000,12.000000,1.000000,6.000000,0.500000,1.000000
tuLZxHUt,100,1, test, 1, 7, 21, 1, 2, 1, 2, 0.35, 0.45, left, 1, 0.35, 0.45, 0.55, 0.65, 1.0458742999471724, 0, 10.000000,12.000000,1.000000,6.000000,0.500000,1.000000
tuLZxHUt,100,1, test, 1, 7, 22, 1, 4, 4, 1, 0.35, 0.65, right, 2, 0.35, 0.45, 0.55, 0.65, 2.173278999980539, 1, 11.000000,13.000000,1.000000,6.000000,0.500000,1.000000
tuLZxHUt,100,1, test, 1, 7, 23, 3, 4, 4, 3, 0.55, 0.65, right, 2, 0.35, 0.45, 0.55, 0.65, 1.4952886999817565, 1, 12.000000,14.000000,1.000000,6.000000,0.500000,1.000000
tuLZxHUt,100,1, test, 1, 7, 24, 3, 1, 3, 1, 0.55, 0.35, left, 1, 0.35, 0.45, 0.55, 0.65, 1.816562099964358, 1, 13.000000,15.000000,1.000000,6.000000,0.500000,1.000000
tuLZxHUt,100,1, test, 1, 7, 25, 2, 3, 2, 3, 0.45, 0.55, left, 1, 0.35, 0.45, 0.55, 0.65, 1.0045211999677122, 0, 13.000000,15.000000,1.000000,6.000000,0.500000,1.000000
tuLZxHUt,100,1, test, 2, 1, 1, 4, 1, 1, 4, 0.65, 0.35, right, 2, 0.35, 0.45, 0.55, 0.65, 0.7342734000412747, 1, 1.000000,16.000000,1.000000,6.000000,0.500000,1.000000
tuLZxHUt,100,1, test, 2, 1, 2, 3, 4, 4, 3, 0.55, 0.65, right, 2, 0.35, 0.45, 0.55, 0.65, 2.3786127000348642, 0, 1.000000,16.000000,1.000000,6.000000,0.500000,1.000000
tuLZxHUt,100,1, test, 2, 1, 3, 1, 2, 1, 2, 0.35, 0.45, left, 1, 0.35, 0.45, 0.55, 0.65, 0.7325844999868423, 0, 1.000000,16.000000,1.000000,6.000000,0.500000,1.000000
tuLZxHUt,100,1, test, 2, 1, 4, 2, 3, 2, 3, 0.45, 0.55, left, 1, 0.35, 0.45, 0.55, 0.65, 1.6149346999591216, 1, 2.000000,17.000000,1.000000,6.000000,0.500000,1.000000
tuLZxHUt,100,1, test, 2, 1, 5, 4, 1, 4, 1, 0.65, 0.35, left, 1, 0.35, 0.45, 0.55, 0.65, 0.9542806000681594, 1, 3.000000,18.000000,1.000000,6.000000,0.500000,1.000000
tuLZxHUt,100,1, test, 2, 1, 6, 2, 3, 3, 2, 0.45, 0.55, right, 2, 0.35, 0.45, 0.55, 0.65, 1.2851236999267712, 1, 4.000000,19.000000,1.000000,6.000000,0.500000,1.000000
tuLZxHUt,100,1, test, 2, 1, 7, 2, 1, 2, 1, 0.45, 0.35, left, 1, 0.35, 0.45, 0.55, 0.65, 1.2895412999205291, 0, 4.000000,19.000000,1.000000,6.000000,0.500000,1.000000
tuLZxHUt,100,1, test, 2, 1, 8, 4, 1, 1, 4, 0.65, 0.35, right, 2, 0.35, 0.45, 0.55, 0.65, 0.9141883000265807, 1, 5.000000,20.000000,1.000000,6.000000,0.500000,1.000000
tuLZxHUt,100,1, test, 2, 1, 9, 4, 2, 2, 4, 0.65, 0.45, right, 2, 0.35, 0.45, 0.55, 0.65, 1.0216691000387073, 0, 5.000000,20.000000,1.000000,6.000000,0.500000,1.000000
tuLZxHUt,100,1, test, 2, 1, 10, 2, 1, 2, 1, 0.45, 0.35, left, 1, 0.35, 0.45, 0.55, 0.65, 0.7329403000185266, 0, 5.000000,20.000000,1.000000,6.000000,0.500000,1.000000
tuLZxHUt,100,1, test, 2, 1, 11, 4, 1, 4, 1, 0.65, 0.35, left, 1, 0.35, 0.45, 0.55, 0.65, 2.6492456999840215, 0, 5.000000,20.000000,1.000000,6.000000,0.500000,1.000000
tuLZxHUt,100,1, test, 2, 1, 12, 4, 1, 1, 4, 0.65, 0.35, right, 2, 0.35, 0.45, 0.55, 0.65, 2.4229301000013947, 1, 6.000000,21.000000,1.000000,6.000000,0.500000,1.000000
tuLZxHUt,100,1, test, 2, 1, 13, 1, 3, 1, 3, 0.35, 0.55, left, 1, 0.35, 0.45, 0.55, 0.65, 2.3542336999671534, 1, 7.000000,22.000000,1.000000,6.000000,0.500000,1.000000
tuLZxHUt,100,1, test, 2, 1, 14, 2, 1, 1, 2, 0.45, 0.35, right, 2, 0.35, 0.45, 0.55, 0.65, 0.8763677999377251, 1, 8.000000,23.000000,1.000000,6.000000,0.500000,1.000000
tuLZxHUt,100,1, test, 2, 1, 15, 2, 3, 3, 2, 0.45, 0.55, right, 2, 0.35, 0.45, 0.55, 0.65, 1.2614755999529734, 0, 8.000000,23.000000,1.000000,6.000000,0.500000,1.000000
tuLZxHUt,100,1, test, 2, 1, 16, 4, 1, 1, 4, 0.65, 0.35, right, 2, 0.35, 0.45, 0.55, 0.65, 1.5282046000938863, 1, 9.000000,24.000000,1.000000,6.000000,0.500000,1.000000
tuLZxHUt,100,1, test, 2, 1, 17, 2, 4, 2, 4, 0.45, 0.65, left, 1, 0.35, 0.45, 0.55, 0.65, 1.044104199972935, 0, 9.000000,24.000000,1.000000,6.000000,0.500000,1.000000
tuLZxHUt,100,1, test, 2, 1, 18, 4, 2, 4, 2, 0.65, 0.45, left, 1, 0.35, 0.45, 0.55, 0.65, 1.8148419000208378, 1, 10.000000,25.000000,1.000000,6.000000,0.500000,1.000000
tuLZxHUt,100,1, test, 2, 1, 19, 3, 1, 1, 3, 0.55, 0.35, right, 2, 0.35, 0.45, 0.55, 0.65, 1.6260438000317663, 0, 10.000000,25.000000,1.000000,6.000000,0.500000,1.000000
tuLZxHUt,100,1, test, 2, 1, 20, 1, 2, 2, 1, 0.35, 0.45, right, 2, 0.35, 0.45, 0.55, 0.65, 1.890443299897015, 0, 10.000000,25.000000,1.000000,6.000000,0.500000,1.000000
tuLZxHUt,100,1, test, 2, 1, 21, 4, 3, 3, 4, 0.65, 0.55, right, 2, 0.35, 0.45, 0.55, 0.65, 0.9715320999966934, 0, 10.000000,25.000000,1.000000,6.000000,0.500000,1.000000
tuLZxHUt,100,1, test, 2, 1, 22, 3, 4, 4, 3, 0.55, 0.65, right, 2, 0.35, 0.45, 0.55, 0.65, 1.1574383999686688, 1, 11.000000,26.000000,1.000000,6.000000,0.500000,1.000000
tuLZxHUt,100,1, test, 2, 1, 23, 3, 4, 4, 3, 0.55, 0.65, right, 2, 0.35, 0.45, 0.55, 0.65, 0.7439902999904007, 0, 11.000000,26.000000,1.000000,6.000000,0.500000,1.000000
tuLZxHUt,100,1, test, 2, 1, 24, 2, 3, 2, 3, 0.45, 0.55, left, 1, 0.35, 0.45, 0.55, 0.65, 1.0226963000604883, 1, 12.000000,27.000000,1.000000,6.000000,0.500000,1.000000
tuLZxHUt,100,1, test, 2, 1, 25, 4, 1, 1, 4, 0.65, 0.35, right, 2, 0.35, 0.45, 0.55, 0.65, 1.3300912000704557, 1, 13.000000,28.000000,1.000000,6.000000,0.500000,1.000000
tuLZxHUt,100,1, test, 3, 7, 1, 3, 2, 3, 2, 0.55, 0.45, left, 1, 0.35, 0.45, 0.55, 0.65, 0.7199817000655457, 1, 1.000000,29.000000,1.000000,6.000000,0.500000,1.000000
tuLZxHUt,100,1, test, 3, 7, 2, 3, 4, 4, 3, 0.55, 0.65, right, 2, 0.35, 0.45, 0.55, 0.65, 2.000133700086735, 1, 2.000000,30.000000,1.000000,6.000000,0.500000,1.000000
tuLZxHUt,100,1, test, 3, 7, 3, 2, 1, 1, 2, 0.45, 0.35, right, 2, 0.35, 0.45, 0.55, 0.65, 2.808476399979554, 0, 2.000000,30.000000,1.000000,6.000000,0.500000,1.000000
tuLZxHUt,100,1, test, 3, 7, 4, 3, 2, 3, 2, 0.55, 0.45, left, 1, 0.35, 0.45, 0.55, 0.65, 1.3294374999823049, 1, 3.000000,31.000000,1.000000,6.000000,0.500000,1.000000
tuLZxHUt,100,1, test, 3, 7, 5, 3, 2, 3, 2, 0.55, 0.45, left, 1, 0.35, 0.45, 0.55, 0.65, 0.8932476999470964, 0, 3.000000,31.000000,1.000000,6.000000,0.500000,1.000000
tuLZxHUt,100,1, test, 3, 7, 6, 1, 3, 3, 1, 0.35, 0.55, right, 2, 0.35, 0.45, 0.55, 0.65, 1.3585822000168264, 0, 3.000000,31.000000,1.000000,6.000000,0.500000,1.000000
tuLZxHUt,100,1, test, 3, 7, 7, 2, 1, 1, 2, 0.45, 0.35, right, 2, 0.35, 0.45, 0.55, 0.65, 0.9451648000394925, 1, 4.000000,32.000000,1.000000,6.000000,0.500000,1.000000
tuLZxHUt,100,1, test, 3, 7, 8, 1, 3, 1, 3, 0.35, 0.55, left, 1, 0.35, 0.45, 0.55, 0.65, 0.9439510001102462, 1, 5.000000,33.000000,1.000000,6.000000,0.500000,1.000000
tuLZxHUt,100,1, test, 3, 7, 9, 3, 1, 3, 1, 0.55, 0.35, left, 1, 0.35, 0.45, 0.55, 0.65, 1.4112930999835953, 1, 6.000000,34.000000,1.000000,6.000000,0.500000,1.000000
tuLZxHUt,100,1, test, 3, 7, 10, 3, 2, 2, 3, 0.55, 0.45, right, 2, 0.35, 0.45, 0.55, 0.65, 1.1718923000153154, 0, 6.000000,34.000000,1.000000,6.000000,0.500000,1.000000
tuLZxHUt,100,1, test, 3, 7, 11, 2, 1, 1, 2, 0.45, 0.35, right, 2, 0.35, 0.45, 0.55, 0.65, 0.6804594000568613, 0, 6.000000,34.000000,1.000000,6.000000,0.500000,1.000000
tuLZxHUt,100,1, test, 3, 7, 12, 3, 1, 3, 1, 0.55, 0.35, left, 1, 0.35, 0.45, 0.55, 0.65, 0.897760899970308, 1, 7.000000,35.000000,1.000000,6.000000,0.500000,1.000000
tuLZxHUt,100,1, test, 3, 7, 13, 2, 3, 2, 3, 0.45, 0.55, left, 1, 0.35, 0.45, 0.55, 0.65, 1.5471564000472426, 1, 8.000000,36.000000,1.000000,6.000000,0.500000,1.000000
tuLZxHUt,100,1, test, 3, 7, 14, 3, 4, 4, 3, 0.55, 0.65, right, 2, 0.35, 0.45, 0.55, 0.65, 1.8551164999371395, 1, 9.000000,37.000000,1.000000,6.000000,0.500000,1.000000
tuLZxHUt,100,1, test, 3, 7, 15, 3, 4, 3, 4, 0.55, 0.65, left, 1, 0.35, 0.45, 0.55, 0.65, 1.513827000046149, 0, 9.000000,37.000000,1.000000,6.000000,0.500000,1.000000
tuLZxHUt,100,1, test, 3, 7, 16, 2, 4, 4, 2, 0.45, 0.65, right, 2, 0.35, 0.45, 0.55, 0.65, 1.8336213000584394, 1, 10.000000,38.000000,1.000000,6.000000,0.500000,1.000000
tuLZxHUt,100,1, test, 3, 7, 17, 1, 2, 1, 2, 0.35, 0.45, left, 1, 0.35, 0.45, 0.55, 0.65, 0.8488508999580517, 1, 11.000000,39.000000,1.000000,6.000000,0.500000,1.000000
tuLZxHUt,100,1, test, 3, 7, 18, 3, 1, 1, 3, 0.55, 0.35, right, 2, 0.35, 0.45, 0.55, 0.65, 0.6116859000176191, 1, 12.000000,40.000000,1.000000,6.000000,0.500000,1.000000
tuLZxHUt,100,1, test, 3, 7, 19, 3, 4, 3, 4, 0.55, 0.65, left, 1, 0.35, 0.45, 0.55, 0.65, 8.080003317445517e-05, 1, 13.000000,41.000000,1.000000,6.000000,0.500000,1.000000
tuLZxHUt,100,1, test, 3, 7, 20, 3, 1, 1, 3, 0.55, 0.35, right, 2, 0.35, 0.45, 0.55, 0.65, 0.6961434000404552, 0, 13.000000,41.000000,1.000000,6.000000,0.500000,1.000000
tuLZxHUt,100,1, test, 3, 7, 21, 1, 4, 4, 1, 0.35, 0.65, right, 2, 0.35, 0.45, 0.55, 0.65, 1.7135825000004843, 1, 14.000000,42.000000,1.000000,6.000000,0.500000,1.000000
tuLZxHUt,100,1, test, 3, 7, 22, 2, 1, 1, 2, 0.45, 0.35, right, 2, 0.35, 0.45, 0.55, 0.65, 0.7495065999682993, 0, 14.000000,42.000000,1.000000,6.000000,0.500000,1.000000
tuLZxHUt,100,1, test, 3, 7, 23, 2, 4, 2, 4, 0.45, 0.65, left, 1, 0.35, 0.45, 0.55, 0.65, 0.527539600036107, 1, 15.000000,43.000000,1.000000,6.000000,0.500000,1.000000
tuLZxHUt,100,1, test, 3, 7, 24, 3, 1, 1, 3, 0.55, 0.35, right, 2, 0.35, 0.45, 0.55, 0.65, 0.6076051000272855, 0, 15.000000,43.000000,1.000000,6.000000,0.500000,1.000000
tuLZxHUt,100,1, test, 3, 7, 25, 3, 4, 4, 3, 0.55, 0.65, right, 2, 0.35, 0.45, 0.55, 0.65, 0.9359521999722347, 0, 15.000000,43.000000,1.000000,6.000000,0.500000,1.000000
tuLZxHUt,100,1, test, 4, 1, 1, 1, 2, 1, 2, 0.35, 0.45, left, 1, 0.35, 0.45, 0.55, 0.65, 0.7675508999964222, 1, 1.000000,44.000000,1.000000,6.000000,0.500000,1.000000
tuLZxHUt,100,1, test, 4, 1, 2, 2, 3, 2, 3, 0.45, 0.55, left, 1, 0.35, 0.45, 0.55, 0.65, 1.0986086000921205, 0, 1.000000,44.000000,1.000000,6.000000,0.500000,1.000000
tuLZxHUt,100,1, test, 4, 1, 3, 1, 3, 3, 1, 0.35, 0.55, right, 2, 0.35, 0.45, 0.55, 0.65, 1.0433563999831676, 0, 1.000000,44.000000,1.000000,6.000000,0.500000,1.000000
tuLZxHUt,100,1, test, 4, 1, 4, 3, 4, 3, 4, 0.55, 0.65, left, 1, 0.35, 0.45, 0.55, 0.65, 1.773984199971892, 1, 2.000000,45.000000,1.000000,6.000000,0.500000,1.000000
tuLZxHUt,100,1, test, 4, 1, 5, 2, 3, 3, 2, 0.45, 0.55, right, 2, 0.35, 0.45, 0.55, 0.65, 2.3439341998891905, 0, 2.000000,45.000000,1.000000,6.000000,0.500000,1.000000
tuLZxHUt,100,1, test, 4, 1, 6, 3, 4, 3, 4, 0.55, 0.65, left, 1, 0.35, 0.45, 0.55, 0.65, 1.4351907999953255, 1, 3.000000,46.000000,1.000000,6.000000,0.500000,1.000000
tuLZxHUt,100,1, test, 4, 1, 7, 1, 2, 2, 1, 0.35, 0.45, right, 2, 0.35, 0.45, 0.55, 0.65, 1.8825250000227243, 1, 4.000000,47.000000,1.000000,6.000000,0.500000,1.000000
tuLZxHUt,100,1, test, 4, 1, 8, 3, 4, 3, 4, 0.55, 0.65, left, 1, 0.35, 0.45, 0.55, 0.65, 1.8437514000106603, 0, 4.000000,47.000000,1.000000,6.000000,0.500000,1.000000
tuLZxHUt,100,1, test, 4, 1, 9, 4, 2, 4, 2, 0.65, 0.45, left, 1, 0.35, 0.45, 0.55, 0.65, 0.7425163000589237, 0, 4.000000,47.000000,1.000000,6.000000,0.500000,1.000000
tuLZxHUt,100,1, test, 4, 1, 10, 3, 2, 3, 2, 0.55, 0.45, left, 1, 0.35, 0.45, 0.55, 0.65, 1.4499224999453872, 1, 5.000000,48.000000,1.000000,6.000000,0.500000,1.000000
tuLZxHUt,100,1, test, 4, 1, 11, 4, 2, 4, 2, 0.65, 0.45, left, 1, 0.35, 0.45, 0.55, 0.65, 3.628519200021401, 0, 5.000000,48.000000,1.000000,6.000000,0.500000,1.000000
tuLZxHUt,100,1, test, 4, 1, 12, 1, 4, 1, 4, 0.35, 0.65, left, 1, 0.35, 0.45, 0.55, 0.65, 2.232564999954775, 0, 5.000000,48.000000,1.000000,6.000000,0.500000,1.000000
tuLZxHUt,100,1, test, 4, 1, 13, 3, 2, 2, 3, 0.55, 0.45, right, 2, 0.35, 0.45, 0.55, 0.65, 1.3237162999575958, 0, 5.000000,48.000000,1.000000,6.000000,0.500000,1.000000
tuLZxHUt,100,1, test, 4, 1, 14, 2, 3, 2, 3, 0.45, 0.55, left, 1, 0.35, 0.45, 0.55, 0.65, 0.6596402000868693, 1, 6.000000,49.000000,1.000000,6.000000,0.500000,1.000000
tuLZxHUt,100,1, test, 4, 1, 15, 1, 4, 1, 4, 0.35, 0.65, left, 1, 0.35, 0.45, 0.55, 0.65, 1.938566300086677, 1, 7.000000,50.000000,1.000000,6.000000,0.500000,1.000000
tuLZxHUt,100,1, test, 4, 1, 16, 2, 3, 2, 3, 0.45, 0.55, left, 1, 0.35, 0.45, 0.55, 0.65, 1.3693881999934092, 0, 7.000000,50.000000,1.000000,6.000000,0.500000,1.000000
tuLZxHUt,100,1, test, 4, 1, 17, 3, 4, 3, 4, 0.55, 0.65, left, 1, 0.35, 0.45, 0.55, 0.65, 1.1139575999695808, 0, 7.000000,50.000000,1.000000,6.000000,0.500000,1.000000
tuLZxHUt,100,1, test, 4, 1, 18, 2, 1, 1, 2, 0.45, 0.35, right, 2, 0.35, 0.45, 0.55, 0.65, 2.059193499968387, 1, 8.000000,51.000000,1.000000,6.000000,0.500000,1.000000
tuLZxHUt,100,1, test, 4, 1, 19, 2, 1, 1, 2, 0.45, 0.35, right, 2, 0.35, 0.45, 0.55, 0.65, 0.9377125999890268, 0, 8.000000,51.000000,1.000000,6.000000,0.500000,1.000000
tuLZxHUt,100,1, test, 4, 1, 20, 2, 1, 2, 1, 0.45, 0.35, left, 1, 0.35, 0.45, 0.55, 0.65, 1.0651595999952406, 0, 8.000000,51.000000,1.000000,6.000000,0.500000,1.000000
tuLZxHUt,100,1, test, 4, 1, 21, 1, 2, 2, 1, 0.35, 0.45, right, 2, 0.35, 0.45, 0.55, 0.65, 0.8350643999874592, 0, 8.000000,51.000000,1.000000,6.000000,0.500000,1.000000
tuLZxHUt,100,1, test, 4, 1, 22, 3, 1, 1, 3, 0.55, 0.35, right, 2, 0.35, 0.45, 0.55, 0.65, 1.8665309000061825, 1, 9.000000,52.000000,1.000000,6.000000,0.500000,1.000000
tuLZxHUt,100,1, test, 4, 1, 23, 3, 1, 3, 1, 0.55, 0.35, left, 1, 0.35, 0.45, 0.55, 0.65, 1.136477299965918, 1, 10.000000,53.000000,1.000000,6.000000,0.500000,1.000000
tuLZxHUt,100,1, test, 4, 1, 24, 2, 1, 2, 1, 0.45, 0.35, left, 1, 0.35, 0.45, 0.55, 0.65, 1.3437496001133695, 1, 11.000000,54.000000,1.000000,6.000000,0.500000,1.000000
tuLZxHUt,100,1, test, 4, 1, 25, 3, 4, 4, 3, 0.55, 0.65, right, 2, 0.35, 0.45, 0.55, 0.65, 1.3432404000777751, 1, 12.000000,55.000000,1.000000,6.000000,0.500000,1.000000
tuLZxHUt,100,1, test, 5, 7, 1, 3, 2, 3, 2, 0.55, 0.45, left, 1, 0.35, 0.45, 0.55, 0.65, 0.6644968999316916, 0, 0.000000,55.000000,1.000000,6.000000,0.500000,1.000000
tuLZxHUt,100,1, test, 5, 7, 2, 2, 3, 2, 3, 0.45, 0.55, left, 1, 0.35, 0.45, 0.55, 0.65, 2.7451656999764964, 0, 0.000000,55.000000,1.000000,6.000000,0.500000,1.000000
tuLZxHUt,100,1, test, 5, 7, 3, 2, 1, 2, 1, 0.45, 0.35, left, 1, 0.35, 0.45, 0.55, 0.65, 0.9081462000031024, 0, 0.000000,55.000000,1.000000,6.000000,0.500000,1.000000
tuLZxHUt,100,1, test, 5, 7, 4, 3, 4, 3, 4, 0.55, 0.65, left, 1, 0.35, 0.45, 0.55, 0.65, 1.009155899984762, 1, 1.000000,56.000000,1.000000,6.000000,0.500000,1.000000
tuLZxHUt,100,1, test, 5, 7, 5, 4, 2, 4, 2, 0.65, 0.45, left, 1, 0.35, 0.45, 0.55, 0.65, 1.253548500011675, 1, 2.000000,57.000000,1.000000,6.000000,0.500000,1.000000
tuLZxHUt,100,1, test, 5, 7, 6, 2, 1, 1, 2, 0.45, 0.35, right, 2, 0.35, 0.45, 0.55, 0.65, 1.5684140999801457, 0, 2.000000,57.000000,1.000000,6.000000,0.500000,1.000000
tuLZxHUt,100,1, test, 5, 7, 7, 1, 2, 1, 2, 0.35, 0.45, left, 1, 0.35, 0.45, 0.55, 0.65, 0.7823144999565557, 0, 2.000000,57.000000,1.000000,6.000000,0.500000,1.000000
tuLZxHUt,100,1, test, 5, 7, 8, 2, 3, 2, 3, 0.45, 0.55, left, 1, 0.35, 0.45, 0.55, 0.65, 0.7627373000141233, 1, 3.000000,58.000000,1.000000,6.000000,0.500000,1.000000
tuLZxHUt,100,1, test, 5, 7, 9, 1, 4, 4, 1, 0.35, 0.65, right, 2, 0.35, 0.45, 0.55, 0.65, 0.641457499936223, 1, 4.000000,59.000000,1.000000,6.000000,0.500000,1.000000
tuLZxHUt,100,1, test, 5, 7, 10, 1, 3, 3, 1, 0.35, 0.55, right, 2, 0.35, 0.45, 0.55, 0.65, 0.9926921000005677, 0, 4.000000,59.000000,1.000000,6.000000,0.500000,1.000000
tuLZxHUt,100,1, test, 5, 7, 11, 3, 1, 3, 1, 0.55, 0.35, left, 1, 0.35, 0.45, 0.55, 0.65, 0.5778862000443041, 1, 5.000000,60.000000,1.000000,6.000000,0.500000,1.000000
tuLZxHUt,100,1, test, 5, 7, 12, 3, 1, 1, 3, 0.55, 0.35, right, 2, 0.35, 0.45, 0.55, 0.65, 0.7038899000035599, 0, 5.000000,60.000000,1.000000,6.000000,0.500000,1.000000
tuLZxHUt,100,1, test, 5, 7, 13, 4, 2, 4, 2, 0.65, 0.45, left, 1, 0.35, 0.45, 0.55, 0.65, 0.6125373999821022, 1, 6.000000,61.000000,1.000000,6.000000,0.500000,1.000000
tuLZxHUt,100,1, test, 5, 7, 14, 4, 3, 3, 4, 0.65, 0.55, right, 2, 0.35, 0.45, 0.55, 0.65, 0.9325484000146389, 1, 7.000000,62.000000,1.000000,6.000000,0.500000,1.000000
tuLZxHUt,100,1, test, 5, 7, 15, 4, 3, 3, 4, 0.65, 0.55, right, 2, 0.35, 0.45, 0.55, 0.65, 0.7392120999284089, 1, 8.000000,63.000000,1.000000,6.000000,0.500000,1.000000
tuLZxHUt,100,1, test, 5, 7, 16, 4, 3, 4, 3, 0.65, 0.55, left, 1, 0.35, 0.45, 0.55, 0.65, 1.8105691999662668, 1, 9.000000,64.000000,1.000000,6.000000,0.500000,1.000000
tuLZxHUt,100,1, test, 5, 7, 17, 2, 1, 2, 1, 0.45, 0.35, left, 1, 0.35, 0.45, 0.55, 0.65, 1.21926510008052, 0, 9.000000,64.000000,1.000000,6.000000,0.500000,1.000000
tuLZxHUt,100,1, test, 5, 7, 18, 4, 3, 4, 3, 0.65, 0.55, left, 1, 0.35, 0.45, 0.55, 0.65, 1.119230099953711, 1, 10.000000,65.000000,1.000000,6.000000,0.500000,1.000000
tuLZxHUt,100,1, test, 5, 7, 19, 1, 2, 1, 2, 0.35, 0.45, left, 1, 0.35, 0.45, 0.55, 0.65, 2.2871851000236347, 0, 10.000000,65.000000,1.000000,6.000000,0.500000,1.000000
tuLZxHUt,100,1, test, 5, 7, 20, 4, 3, 3, 4, 0.65, 0.55, right, 2, 0.35, 0.45, 0.55, 0.65, 0.6597880999324843, 1, 11.000000,66.000000,1.000000,6.000000,0.500000,1.000000
tuLZxHUt,100,1, test, 5, 7, 21, 4, 3, 4, 3, 0.65, 0.55, left, 1, 0.35, 0.45, 0.55, 0.65, 1.838447600021027, 1, 12.000000,67.000000,1.000000,6.000000,0.500000,1.000000
tuLZxHUt,100,1, test, 5, 7, 22, 3, 2, 2, 3, 0.55, 0.45, right, 2, 0.35, 0.45, 0.55, 0.65, 1.7216499999631196, 0, 12.000000,67.000000,1.000000,6.000000,0.500000,1.000000
tuLZxHUt,100,1, test, 5, 7, 23, 1, 3, 1, 3, 0.35, 0.55, left, 1, 0.35, 0.45, 0.55, 0.65, 0.8817027000477538, 0, 12.000000,67.000000,1.000000,6.000000,0.500000,1.000000
tuLZxHUt,100,1, test, 5, 7, 24, 3, 2, 2, 3, 0.55, 0.45, right, 2, 0.35, 0.45, 0.55, 0.65, 1.3150173000758514, 0, 12.000000,67.000000,1.000000,6.000000,0.500000,1.000000
tuLZxHUt,100,1, test, 5, 7, 25, 4, 2, 4, 2, 0.65, 0.45, left, 1, 0.35, 0.45, 0.55, 0.65, 1.082935499958694, 0, 12.000000,67.000000,1.000000,6.000000,0.500000,1.000000
tuLZxHUt,100,1, test, 6, 1, 1, 3, 4, 4, 3, 0.55, 0.65, right, 2, 0.35, 0.45, 0.55, 0.65, 0.9028869000030681, 1, 1.000000,68.000000,1.000000,6.000000,0.500000,1.000000
tuLZxHUt,100,1, test, 6, 1, 2, 3, 1, 3, 1, 0.55, 0.35, left, 1, 0.35, 0.45, 0.55, 0.65, 0.7107716000173241, 1, 2.000000,69.000000,1.000000,6.000000,0.500000,1.000000
tuLZxHUt,100,1, test, 6, 1, 3, 3, 2, 2, 3, 0.55, 0.45, right, 2, 0.35, 0.45, 0.55, 0.65, 1.9629116000141948, 0, 2.000000,69.000000,1.000000,6.000000,0.500000,1.000000
tuLZxHUt,100,1, test, 6, 1, 4, 3, 4, 3, 4, 0.55, 0.65, left, 1, 0.35, 0.45, 0.55, 0.65, 1.2882511999923736, 0, 2.000000,69.000000,1.000000,6.000000,0.500000,1.000000
tuLZxHUt,100,1, test, 6, 1, 5, 3, 4, 4, 3, 0.55, 0.65, right, 2, 0.35, 0.45, 0.55, 0.65, 2.3769027999369428, 0, 2.000000,69.000000,1.000000,6.000000,0.500000,1.000000
tuLZxHUt,100,1, test, 6, 1, 6, 2, 3, 2, 3, 0.45, 0.55, left, 1, 0.35, 0.45, 0.55, 0.65, 1.5580975998891518, 1, 3.000000,70.000000,1.000000,6.000000,0.500000,1.000000
tuLZxHUt,100,1, test, 6, 1, 7, 2, 4, 4, 2, 0.45, 0.65, right, 2, 0.35, 0.45, 0.55, 0.65, 1.1039035000139847, 0, 3.000000,70.000000,1.000000,6.000000,0.500000,1.000000
tuLZxHUt,100,1, test, 6, 1, 8, 1, 4, 1, 4, 0.35, 0.65, left, 1, 0.35, 0.45, 0.55, 0.65, 3.032124900026247, 1, 4.000000,71.000000,1.000000,6.000000,0.500000,1.000000
tuLZxHUt,100,1, test, 6, 1, 9, 1, 3, 1, 3, 0.35, 0.55, left, 1, 0.35, 0.45, 0.55, 0.65, 1.4387511999811977, 0, 4.000000,71.000000,1.000000,6.000000,0.500000,1.000000
tuLZxHUt,100,1, test, 6, 1, 10, 1, 3, 3, 1, 0.35, 0.55, right, 2, 0.35, 0.45, 0.55, 0.65, 1.7776391000952572, 1, 5.000000,72.000000,1.000000,6.000000,0.500000,1.000000
tuLZxHUt,100,1, test, 6, 1, 11, 2, 3, 3, 2, 0.45, 0.55, right, 2, 0.35, 0.45, 0.55, 0.65, 2.2268800999736413, 1, 6.000000,73.000000,1.000000,6.000000,0.500000,1.000000
tuLZxHUt,100,1, test, 6, 1, 12, 2, 1, 1, 2, 0.45, 0.35, right, 2, 0.35, 0.45, 0.55, 0.65, 2.7262129000155255, 1, 7.000000,74.000000,1.000000,6.000000,0.500000,1.000000
tuLZxHUt,100,1, test, 6, 1, 13, 4, 1, 4, 1, 0.65, 0.35, left, 1, 0.35, 0.45, 0.55, 0.65, 1.1295026000589132, 0, 7.000000,74.000000,1.000000,6.000000,0.500000,1.000000
tuLZxHUt,100,1, test, 6, 1, 14, 2, 4, 4, 2, 0.45, 0.65, right, 2, 0.35, 0.45, 0.55, 0.65, 1.008232699939981, 1, 8.000000,75.000000,1.000000,6.000000,0.500000,1.000000
tuLZxHUt,100,1, test, 6, 1, 15, 3, 4, 4, 3, 0.55, 0.65, right, 2, 0.35, 0.45, 0.55, 0.65, 0.8281080999877304, 0, 8.000000,75.000000,1.000000,6.000000,0.500000,1.000000
tuLZxHUt,100,1, test, 6, 1, 16, 2, 3, 2, 3, 0.45, 0.55, left, 1, 0.35, 0.45, 0.55, 0.65, 0.8634687000885606, 1, 9.000000,76.000000,1.000000,6.000000,0.500000,1.000000
tuLZxHUt,100,1, test, 6, 1, 17, 3, 1, 3, 1, 0.55, 0.35, left, 1, 0.35, 0.45, 0.55, 0.65, 1.0542099999729544, 1, 10.000000,77.000000,1.000000,6.000000,0.500000,1.000000
tuLZxHUt,100,1, test, 6, 1, 18, 2, 3, 2, 3, 0.45, 0.55, left, 1, 0.35, 0.45, 0.55, 0.65, 1.2795107000274584, 1, 11.000000,78.000000,1.000000,6.000000,0.500000,1.000000
tuLZxHUt,100,1, test, 6, 1, 19, 2, 3, 2, 3, 0.45, 0.55, left, 1, 0.35, 0.45, 0.55, 0.65, 0.4199584999587387, 1, 12.000000,79.000000,1.000000,6.000000,0.500000,1.000000
tuLZxHUt,100,1, test, 6, 1, 20, 3, 1, 3, 1, 0.55, 0.35, left, 1, 0.35, 0.45, 0.55, 0.65, 1.5474614000413567, 0, 12.000000,79.000000,1.000000,6.000000,0.500000,1.000000
tuLZxHUt,100,1, test, 6, 1, 21, 4, 3, 3, 4, 0.65, 0.55, right, 2, 0.35, 0.45, 0.55, 0.65, 0.9494198999600485, 1, 13.000000,80.000000,1.000000,6.000000,0.500000,1.000000
tuLZxHUt,100,1, test, 6, 1, 22, 2, 4, 2, 4, 0.45, 0.65, left, 1, 0.35, 0.45, 0.55, 0.65, 2.331351300003007, 1, 14.000000,81.000000,1.000000,6.000000,0.500000,1.000000
tuLZxHUt,100,1, test, 6, 1, 23, 2, 4, 2, 4, 0.45, 0.65, left, 1, 0.35, 0.45, 0.55, 0.65, 0.7258951000403613, 1, 15.000000,82.000000,1.000000,6.000000,0.500000,1.000000
tuLZxHUt,100,1, test, 6, 1, 24, 2, 1, 1, 2, 0.45, 0.35, right, 2, 0.35, 0.45, 0.55, 0.65, 0.9286290999734774, 1, 16.000000,83.000000,1.000000,6.000000,0.500000,1.000000
tuLZxHUt,100,1, test, 6, 1, 25, 4, 3, 4, 3, 0.65, 0.55, left, 1, 0.35, 0.45, 0.55, 0.65, 1.3286622000159696, 1, 17.000000,84.000000,1.000000,6.000000,0.500000,1.000000
tuLZxHUt,100,1, test, 7, 7, 1, 4, 2, 4, 2, 0.65, 0.45, left, 1, 0.35, 0.45, 0.55, 0.65, 0.6871515000239015, 0, 0.000000,84.000000,1.000000,6.000000,0.500000,1.000000
tuLZxHUt,100,1, test, 7, 7, 2, 3, 2, 2, 3, 0.55, 0.45, right, 2, 0.35, 0.45, 0.55, 0.65, 0.40460840007290244, 0, 0.000000,84.000000,1.000000,6.000000,0.500000,1.000000
tuLZxHUt,100,1, test, 7, 7, 3, 2, 4, 4, 2, 0.45, 0.65, right, 2, 0.35, 0.45, 0.55, 0.65, 2.279747199965641, 1, 1.000000,85.000000,1.000000,6.000000,0.500000,1.000000
tuLZxHUt,100,1, test, 7, 7, 4, 4, 3, 4, 3, 0.65, 0.55, left, 1, 0.35, 0.45, 0.55, 0.65, 5.206522300024517, 1, 2.000000,86.000000,1.000000,6.000000,0.500000,1.000000
tuLZxHUt,100,1, test, 7, 7, 5, 3, 1, 1, 3, 0.55, 0.35, right, 2, 0.35, 0.45, 0.55, 0.65, 1.8950571999885142, 1, 3.000000,87.000000,1.000000,6.000000,0.500000,1.000000
tuLZxHUt,100,1, test, 7, 7, 6, 3, 1, 3, 1, 0.55, 0.35, left, 1, 0.35, 0.45, 0.55, 0.65, 2.008442800026387, 0, 3.000000,87.000000,1.000000,6.000000,0.500000,1.000000
tuLZxHUt,100,1, test, 7, 7, 7, 1, 4, 1, 4, 0.35, 0.65, left, 1, 0.35, 0.45, 0.55, 0.65, 3.1970519999740645, 1, 4.000000,88.000000,1.000000,6.000000,0.500000,1.000000
tuLZxHUt,100,1, test, 7, 7, 8, 2, 3, 2, 3, 0.45, 0.55, left, 1, 0.35, 0.45, 0.55, 0.65, 2.1695659999968484, 0, 4.000000,88.000000,1.000000,6.000000,0.500000,1.000000
tuLZxHUt,100,1, test, 7, 7, 9, 3, 2, 2, 3, 0.55, 0.45, right, 2, 0.35, 0.45, 0.55, 0.65, 0.6634919999632984, 1, 5.000000,89.000000,1.000000,6.000000,0.500000,1.000000
tuLZxHUt,100,1, test, 7, 7, 10, 3, 2, 2, 3, 0.55, 0.45, right, 2, 0.35, 0.45, 0.55, 0.65, 0.6577117999549955, 0, 5.000000,89.000000,1.000000,6.000000,0.500000,1.000000
tuLZxHUt,100,1, test, 7, 7, 11, 2, 1, 2, 1, 0.45, 0.35, left, 1, 0.35, 0.45, 0.55, 0.65, 1.9714963000733405, 0, 5.000000,89.000000,1.000000,6.000000,0.500000,1.000000
tuLZxHUt,100,1, test, 7, 7, 12, 1, 3, 3, 1, 0.35, 0.55, right, 2, 0.35, 0.45, 0.55, 0.65, 2.7454405000898987, 0, 5.000000,89.000000,1.000000,6.000000,0.500000,1.000000
tuLZxHUt,100,1, test, 7, 7, 13, 3, 4, 3, 4, 0.55, 0.65, left, 1, 0.35, 0.45, 0.55, 0.65, 1.4954626000253484, 0, 5.000000,89.000000,1.000000,6.000000,0.500000,1.000000
tuLZxHUt,100,1, test, 7, 7, 14, 4, 3, 4, 3, 0.65, 0.55, left, 1, 0.35, 0.45, 0.55, 0.65, 1.4813858000561595, 0, 5.000000,89.000000,1.000000,6.000000,0.500000,1.000000
tuLZxHUt,100,1, test, 7, 7, 15, 4, 2, 4, 2, 0.65, 0.45, left, 1, 0.35, 0.45, 0.55, 0.65, 1.550794499926269, 1, 6.000000,90.000000,1.000000,6.000000,0.500000,1.000000
tuLZxHUt,100,1, test, 7, 7, 16, 4, 3, 4, 3, 0.65, 0.55, left, 1, 0.35, 0.45, 0.55, 0.65, 1.6493296000408009, 0, 6.000000,90.000000,1.000000,6.000000,0.500000,1.000000
tuLZxHUt,100,1, test, 7, 7, 17, 2, 4, 2, 4, 0.45, 0.65, left, 1, 0.35, 0.45, 0.55, 0.65, 2.568018399993889, 1, 7.000000,91.000000,1.000000,6.000000,0.500000,1.000000
tuLZxHUt,100,1, test, 7, 7, 18, 1, 4, 4, 1, 0.35, 0.65, right, 2, 0.35, 0.45, 0.55, 0.65, 2.218144999933429, 0, 7.000000,91.000000,1.000000,6.000000,0.500000,1.000000
tuLZxHUt,100,1, test, 7, 7, 19, 2, 1, 2, 1, 0.45, 0.35, left, 1, 0.35, 0.45, 0.55, 0.65, 1.0659139999188483, 0, 7.000000,91.000000,1.000000,6.000000,0.500000,1.000000
tuLZxHUt,100,1, test, 7, 7, 20, 1, 4, 1, 4, 0.35, 0.65, left, 1, 0.35, 0.45, 0.55, 0.65, 2.011632699985057, 0, 7.000000,91.000000,1.000000,6.000000,0.500000,1.000000
tuLZxHUt,100,1, test, 7, 7, 21, 3, 4, 4, 3, 0.55, 0.65, right, 2, 0.35, 0.45, 0.55, 0.65, 3.1752131000394, 0, 7.000000,91.000000,1.000000,6.000000,0.500000,1.000000
tuLZxHUt,100,1, test, 7, 7, 22, 4, 2, 4, 2, 0.65, 0.45, left, 1, 0.35, 0.45, 0.55, 0.65, 2.2477980999974534, 1, 8.000000,92.000000,1.000000,6.000000,0.500000,1.000000
tuLZxHUt,100,1, test, 7, 7, 23, 4, 1, 1, 4, 0.65, 0.35, right, 2, 0.35, 0.45, 0.55, 0.65, 1.162403899943456, 0, 8.000000,92.000000,1.000000,6.000000,0.500000,1.000000
tuLZxHUt,100,1, test, 7, 7, 24, 2, 4, 4, 2, 0.45, 0.65, right, 2, 0.35, 0.45, 0.55, 0.65, 1.160294400062412, 1, 9.000000,93.000000,1.000000,6.000000,0.500000,1.000000
tuLZxHUt,100,1, test, 7, 7, 25, 3, 1, 1, 3, 0.55, 0.35, right, 2, 0.35, 0.45, 0.55, 0.65, 2.0951572000049055, 1, 10.000000,94.000000,1.000000,6.000000,0.500000,1.000000
tuLZxHUt,100,1, test, 8, 1, 1, 4, 2, 4, 2, 0.65, 0.45, left, 1, 0.35, 0.45, 0.55, 0.65, 0.5921605000039563, 1, 1.000000,95.000000,1.000000,6.000000,0.500000,1.000000
tuLZxHUt,100,1, test, 8, 1, 2, 1, 3, 3, 1, 0.35, 0.55, right, 2, 0.35, 0.45, 0.55, 0.65, 0.5049496999708936, 1, 2.000000,96.000000,1.000000,6.000000,0.500000,1.000000
tuLZxHUt,100,1, test, 8, 1, 3, 1, 3, 1, 3, 0.35, 0.55, left, 1, 0.35, 0.45, 0.55, 0.65, 1.165055499994196, 0, 2.000000,96.000000,1.000000,6.000000,0.500000,1.000000
tuLZxHUt,100,1, test, 8, 1, 4, 2, 1, 1, 2, 0.45, 0.35, right, 2, 0.35, 0.45, 0.55, 0.65, 0.6871658000163734, 0, 2.000000,96.000000,1.000000,6.000000,0.500000,1.000000
tuLZxHUt,100,1, test, 8, 1, 5, 2, 3, 3, 2, 0.45, 0.55, right, 2, 0.35, 0.45, 0.55, 0.65, 0.579739100066945, 1, 3.000000,97.000000,1.000000,6.000000,0.500000,1.000000
tuLZxHUt,100,1, test, 8, 1, 6, 3, 1, 1, 3, 0.55, 0.35, right, 2, 0.35, 0.45, 0.55, 0.65, 0.9609392998972908, 0, 3.000000,97.000000,1.000000,6.000000,0.500000,1.000000
tuLZxHUt,100,1, test, 8, 1, 7, 1, 4, 4, 1, 0.35, 0.65, right, 2, 0.35, 0.45, 0.55, 0.65, 0.5317626000614837, 0, 3.000000,97.000000,1.000000,6.000000,0.500000,1.000000
tuLZxHUt,100,1, test, 8, 1, 8, 4, 1, 4, 1, 0.65, 0.35, left, 1, 0.35, 0.45, 0.55, 0.65, 0.5389223999809474, 1, 4.000000,98.000000,1.000000,6.000000,0.500000,1.000000
tuLZxHUt,100,1, test, 8, 1, 9, 1, 2, 2, 1, 0.35, 0.45, right, 2, 0.35, 0.45, 0.55, 0.65, 1.0535166000481695, 0, 4.000000,98.000000,1.000000,6.000000,0.500000,1.000000
tuLZxHUt,100,1, test, 8, 1, 10, 3, 1, 3, 1, 0.55, 0.35, left, 1, 0.35, 0.45, 0.55, 0.65, 0.9882648999337107, 1, 5.000000,99.000000,1.000000,6.000000,0.500000,1.000000
tuLZxHUt,100,1, test, 8, 1, 11, 3, 2, 3, 2, 0.55, 0.45, left, 1, 0.35, 0.45, 0.55, 0.65, 0.4343457000795752, 0, 5.000000,99.000000,1.000000,6.000000,0.500000,1.000000
tuLZxHUt,100,1, test, 8, 1, 12, 3, 1, 3, 1, 0.55, 0.35, left, 1, 0.35, 0.45, 0.55, 0.65, 1.3930788999423385, 0, 5.000000,99.000000,1.000000,6.000000,0.500000,1.000000
tuLZxHUt,100,1, test, 8, 1, 13, 3, 4, 4, 3, 0.55, 0.65, right, 2, 0.35, 0.45, 0.55, 0.65, 2.1742638000287116, 0, 5.000000,99.000000,1.000000,6.000000,0.500000,1.000000
tuLZxHUt,100,1, test, 8, 1, 14, 1, 2, 2, 1, 0.35, 0.45, right, 2, 0.35, 0.45, 0.55, 0.65, 3.031560800038278, 1, 6.000000,100.000000,1.000000,6.000000,0.500000,1.000000
tuLZxHUt,100,1, test, 8, 1, 15, 1, 4, 4, 1, 0.35, 0.65, right, 2, 0.35, 0.45, 0.55, 0.65, 1.6267804000526667, 1, 7.000000,101.000000,1.000000,6.000000,0.500000,1.000000
tuLZxHUt,100,1, test, 8, 1, 16, 1, 2, 2, 1, 0.35, 0.45, right, 2, 0.35, 0.45, 0.55, 0.65, 0.8228282000636682, 0, 7.000000,101.000000,1.000000,6.000000,0.500000,1.000000
tuLZxHUt,100,1, test, 8, 1, 17, 1, 4, 4, 1, 0.35, 0.65, right, 2, 0.35, 0.45, 0.55, 0.65, 1.2308981999522075, 0, 7.000000,101.000000,1.000000,6.000000,0.500000,1.000000
tuLZxHUt,100,1, test, 8, 1, 18, 4, 3, 3, 4, 0.65, 0.55, right, 2, 0.35, 0.45, 0.55, 0.65, 0.9581742000300437, 1, 8.000000,102.000000,1.000000,6.000000,0.500000,1.000000
tuLZxHUt,100,1, test, 8, 1, 19, 4, 1, 1, 4, 0.65, 0.35, right, 2, 0.35, 0.45, 0.55, 0.65, 1.6761809999588877, 1, 9.000000,103.000000,1.000000,6.000000,0.500000,1.000000
tuLZxHUt,100,1, test, 8, 1, 20, 4, 1, 1, 4, 0.65, 0.35, right, 2, 0.35, 0.45, 0.55, 0.65, 0.46161690005101264, 1, 10.000000,104.000000,1.000000,6.000000,0.500000,1.000000
tuLZxHUt,100,1, test, 8, 1, 21, 4, 1, 4, 1, 0.65, 0.35, left, 1, 0.35, 0.45, 0.55, 0.65, 3.168000799953006, 1, 11.000000,105.000000,1.000000,6.000000,0.500000,1.000000
tuLZxHUt,100,1, test, 8, 1, 22, 4, 3, 3, 4, 0.65, 0.55, right, 2, 0.35, 0.45, 0.55, 0.65, 0.40205589996185154, 1, 12.000000,106.000000,1.000000,6.000000,0.500000,1.000000
tuLZxHUt,100,1, test, 8, 1, 23, 2, 3, 3, 2, 0.45, 0.55, right, 2, 0.35, 0.45, 0.55, 0.65, 1.0374479000456631, 0, 12.000000,106.000000,1.000000,6.000000,0.500000,1.000000
tuLZxHUt,100,1, test, 8, 1, 24, 2, 4, 4, 2, 0.45, 0.65, right, 2, 0.35, 0.45, 0.55, 0.65, 0.8896015998907387, 0, 12.000000,106.000000,1.000000,6.000000,0.500000,1.000000
tuLZxHUt,100,1, test, 8, 1, 25, 2, 4, 2, 4, 0.45, 0.65, left, 1, 0.35, 0.45, 0.55, 0.65, 0.9229214999359101, 0, 12.000000,106.000000,1.000000,6.000000,0.500000,1.000000
