ShaharID, group, counterbalance, block_type, block, delay_condition, trial, chosen, unchosen, offer_left_image, offer_right_image, exp_value_chosen, exp_value_unchosen, choice_location, choice_key, exp_value1, exp_value2, exp_value3, exp_value4, RT, reward, coins_per_block, coins_per_task,ITI_duration,rt_deadline,choice_feedback_duration,outcome_duration
o4NcyS1,200,0, practice, 1, 1, 1, 2, 3, 2, 3, 0.45, 0.55, left, 1, 0.35, 0.45, 0.55, 0.65, 1.5006279000081122, 0, 0.000000,0.000000,1.000000,6.000000,0.500000,1.000000
o4NcyS1,200,0, practice, 1, 1, 2, 3, 2, 3, 2, 0.55, 0.45, left, 1, 0.35, 0.45, 0.55, 0.65, 0.908817799994722, 1, 1.000000,1.000000,1.000000,6.000000,0.500000,1.000000
o4NcyS1,200,0, practice, 1, 1, 3, 4, 1, 4, 1, 0.65, 0.35, left, 1, 0.35, 0.45, 0.55, 0.65, 1.628782499814406, 1, 2.000000,2.000000,1.000000,6.000000,0.500000,1.000000
o4NcyS1,200,0, practice, 1, 1, 4, 4, 2, 2, 4, 0.65, 0.45, right, 2, 0.35, 0.45, 0.55, 0.65, 0.7106850000564009, 1, 3.000000,3.000000,1.000000,6.000000,0.500000,1.000000
o4NcyS1,200,0, practice, 1, 1, 5, 4, 3, 4, 3, 0.65, 0.55, left, 1, 0.35, 0.45, 0.55, 0.65, 0.6318997999187559, 1, 4.000000,4.000000,1.000000,6.000000,0.500000,1.000000
o4NcyS1,200,0, test, 1, 1, 1, 3, 4, 3, 4, 0.55, 0.65, left, 1, 0.35, 0.45, 0.55, 0.65, 1.1582798000890762, 1, 1.000000,5.000000,1.000000,6.000000,0.500000,1.000000
o4NcyS1,200,0, test, 1, 1, 2, 3, 1, 1, 3, 0.55, 0.35, right, 2, 0.35, 0.45, 0.55, 0.65, 1.1433663999196142, 1, 2.000000,6.000000,1.000000,6.000000,0.500000,1.000000
o4NcyS1,200,0, test, 1, 1, 3, 2, 4, 2, 4, 0.45, 0.65, left, 1, 0.35, 0.45, 0.55, 0.65, 1.9032489000819623, 1, 3.000000,7.000000,1.000000,6.000000,0.500000,1.000000
o4NcyS1,200,0, test, 1, 1, 4, 3, 4, 4, 3, 0.55, 0.65, right, 2, 0.35, 0.45, 0.55, 0.65, 1.1828526000026613, 0, 3.000000,7.000000,1.000000,6.000000,0.500000,1.000000
o4NcyS1,200,0, test, 1, 1, 5, 2, 4, 2, 4, 0.45, 0.65, left, 1, 0.35, 0.45, 0.55, 0.65, 1.6730566998012364, 1, 4.000000,8.000000,1.000000,6.000000,0.500000,1.000000
o4NcyS1,200,0, test, 1, 1, 6, 2, 4, 4, 2, 0.45, 0.65, right, 2, 0.35, 0.45, 0.55, 0.65, 0.49337369995191693, 1, 5.000000,9.000000,1.000000,6.000000,0.500000,1.000000
o4NcyS1,200,0, test, 1, 1, 7, 2, 3, 3, 2, 0.45, 0.55, right, 2, 0.35, 0.45, 0.55, 0.65, 1.4179128999821842, 1, 6.000000,10.000000,1.000000,6.000000,0.500000,1.000000
o4NcyS1,200,0, test, 1, 1, 8, 3, 1, 1, 3, 0.55, 0.35, right, 2, 0.35, 0.45, 0.55, 0.65, 1.9951279000379145, 0, 6.000000,10.000000,1.000000,6.000000,0.500000,1.000000
o4NcyS1,200,0, test, 1, 1, 9, 2, 3, 3, 2, 0.45, 0.55, right, 2, 0.35, 0.45, 0.55, 0.65, 0.6839733000379056, 0, 6.000000,10.000000,1.000000,6.000000,0.500000,1.000000
o4NcyS1,200,0, test, 1, 1, 10, 3, 2, 2, 3, 0.55, 0.45, right, 2, 0.35, 0.45, 0.55, 0.65, 1.2924931000452489, 1, 7.000000,11.000000,1.000000,6.000000,0.500000,1.000000
o4NcyS1,200,0, test, 1, 1, 11, 3, 4, 4, 3, 0.55, 0.65, right, 2, 0.35, 0.45, 0.55, 0.65, 0.46486830012872815, 0, 7.000000,11.000000,1.000000,6.000000,0.500000,1.000000
o4NcyS1,200,0, test, 1, 1, 12, 1, 3, 3, 1, 0.35, 0.55, right, 2, 0.35, 0.45, 0.55, 0.65, 1.3789047000464052, 1, 8.000000,12.000000,1.000000,6.000000,0.500000,1.000000
o4NcyS1,200,0, test, 1, 1, 13, 2, 4, 2, 4, 0.45, 0.65, left, 1, 0.35, 0.45, 0.55, 0.65, 1.8886900001671165, 1, 9.000000,13.000000,1.000000,6.000000,0.500000,1.000000
o4NcyS1,200,0, test, 1, 1, 14, 1, 4, 1, 4, 0.35, 0.65, left, 1, 0.35, 0.45, 0.55, 0.65, 2.1882390999235213, 0, 9.000000,13.000000,1.000000,6.000000,0.500000,1.000000
o4NcyS1,200,0, test, 1, 1, 15, 2, 4, 4, 2, 0.45, 0.65, right, 2, 0.35, 0.45, 0.55, 0.65, 1.0953969999682158, 1, 10.000000,14.000000,1.000000,6.000000,0.500000,1.000000
o4NcyS1,200,0, test, 1, 1, 16, 4, 1, 4, 1, 0.65, 0.35, left, 1, 0.35, 0.45, 0.55, 0.65, 1.0753742000088096, 1, 11.000000,15.000000,1.000000,6.000000,0.500000,1.000000
o4NcyS1,200,0, test, 1, 1, 17, 2, 3, 2, 3, 0.45, 0.55, left, 1, 0.35, 0.45, 0.55, 0.65, 1.4518653000704944, 1, 12.000000,16.000000,1.000000,6.000000,0.500000,1.000000
o4NcyS1,200,0, test, 1, 1, 18, 2, 1, 2, 1, 0.45, 0.35, left, 1, 0.35, 0.45, 0.55, 0.65, 0.8154104999266565, 1, 13.000000,17.000000,1.000000,6.000000,0.500000,1.000000
o4NcyS1,200,0, test, 1, 1, 19, 2, 4, 4, 2, 0.45, 0.65, right, 2, 0.35, 0.45, 0.55, 0.65, 0.7624898999929428, 1, 14.000000,18.000000,1.000000,6.000000,0.500000,1.000000
o4NcyS1,200,0, test, 1, 1, 20, 2, 3, 2, 3, 0.45, 0.55, left, 1, 0.35, 0.45, 0.55, 0.65, 0.7252946000080556, 0, 14.000000,18.000000,1.000000,6.000000,0.500000,1.000000
o4NcyS1,200,0, test, 1, 1, 21, 3, 4, 3, 4, 0.55, 0.65, left, 1, 0.35, 0.45, 0.55, 0.65, 1.1271593000274152, 0, 14.000000,18.000000,1.000000,6.000000,0.500000,1.000000
o4NcyS1,200,0, test, 1, 1, 22, 1, 3, 1, 3, 0.35, 0.55, left, 1, 0.35, 0.45, 0.55, 0.65, 1.1062147000338882, 1, 15.000000,19.000000,1.000000,6.000000,0.500000,1.000000
o4NcyS1,200,0, test, 1, 1, 23, 4, 3, 3, 4, 0.65, 0.55, right, 2, 0.35, 0.45, 0.55, 0.65, 0.46316749998368323, 0, 15.000000,19.000000,1.000000,6.000000,0.500000,1.000000
o4NcyS1,200,0, test, 1, 1, 24, 3, 4, 3, 4, 0.55, 0.65, left, 1, 0.35, 0.45, 0.55, 0.65, 0.5925827999599278, 0, 15.000000,19.000000,1.000000,6.000000,0.500000,1.000000
o4NcyS1,200,0, test, 1, 1, 25, 2, 4, 2, 4, 0.45, 0.65, left, 1, 0.35, 0.45, 0.55, 0.65, 0.739157099975273, 1, 16.000000,20.000000,1.000000,6.000000,0.500000,1.000000
o4NcyS1,200,0, test, 2, 7, 1, 3, 1, 3, 1, 0.55, 0.35, left, 1, 0.35, 0.45, 0.55, 0.65, 1.7390566999092698, 0, 0.000000,20.000000,1.000000,6.000000,0.500000,1.000000
o4NcyS1,200,0, test, 2, 7, 2, 1, 4, 4, 1, 0.35, 0.65, right, 2, 0.35, 0.45, 0.55, 0.65, 0.356937900185585, 0, 0.000000,20.000000,1.000000,6.000000,0.500000,1.000000
o4NcyS1,200,0, test, 2, 7, 3, 4, 1, 4, 1, 0.65, 0.35, left, 1, 0.35, 0.45, 0.55, 0.65, 0.7084919000044465, 0, 0.000000,20.000000,1.000000,6.000000,0.500000,1.000000
o4NcyS1,200,0, test, 2, 7, 4, 2, 1, 1, 2, 0.45, 0.35, right, 2, 0.35, 0.45, 0.55, 0.65, 1.4874328998848796, 1, 1.000000,21.000000,1.000000,6.000000,0.500000,1.000000
o4NcyS1,200,0, test, 2, 7, 5, 3, 1, 1, 3, 0.55, 0.35, right, 2, 0.35, 0.45, 0.55, 0.65, 1.592525899875909, 0, 1.000000,21.000000,1.000000,6.000000,0.500000,1.000000
o4NcyS1,200,0, test, 2, 7, 6, 4, 2, 4, 2, 0.65, 0.45, left, 1, 0.35, 0.45, 0.55, 0.65, 1.6857884000055492, 1, 2.000000,22.000000,1.000000,6.000000,0.500000,1.000000
o4NcyS1,200,0, test, 2, 7, 7, 4, 1, 4, 1, 0.65, 0.35, left, 1, 0.35, 0.45, 0.55, 0.65, 1.291729899821803, 0, 2.000000,22.000000,1.000000,6.000000,0.500000,1.000000
o4NcyS1,200,0, test, 2, 7, 8, 2, 4, 2, 4, 0.45, 0.65, left, 1, 0.35, 0.45, 0.55, 0.65, 0.6439584998879582, 0, 2.000000,22.000000,1.000000,6.000000,0.500000,1.000000
o4NcyS1,200,0, test, 2, 7, 9, 3, 4, 4, 3, 0.55, 0.65, right, 2, 0.35, 0.45, 0.55, 0.65, 0.7034261000808328, 0, 2.000000,22.000000,1.000000,6.000000,0.500000,1.000000
o4NcyS1,200,0, test, 2, 7, 10, 2, 4, 4, 2, 0.45, 0.65, right, 2, 0.35, 0.45, 0.55, 0.65, 3.630997500149533, 0, 2.000000,22.000000,1.000000,6.000000,0.500000,1.000000
o4NcyS1,200,0, test, 2, 7, 11, 1, 3, 1, 3, 0.35, 0.55, left, 1, 0.35, 0.45, 0.55, 0.65, 2.7624459001235664, 0, 2.000000,22.000000,1.000000,6.000000,0.500000,1.000000
o4NcyS1,200,0, test, 2, 7, 12, 4, 2, 2, 4, 0.65, 0.45, right, 2, 0.35, 0.45, 0.55, 0.65, 1.1877860999666154, 1, 3.000000,23.000000,1.000000,6.000000,0.500000,1.000000
o4NcyS1,200,0, test, 2, 7, 13, 2, 4, 2, 4, 0.45, 0.65, left, 1, 0.35, 0.45, 0.55, 0.65, 1.374131399905309, 0, 3.000000,23.000000,1.000000,6.000000,0.500000,1.000000
o4NcyS1,200,0, test, 2, 7, 14, 3, 2, 3, 2, 0.55, 0.45, left, 1, 0.35, 0.45, 0.55, 0.65, 0.6071909999009222, 0, 3.000000,23.000000,1.000000,6.000000,0.500000,1.000000
o4NcyS1,200,0, test, 2, 7, 15, 1, 3, 3, 1, 0.35, 0.55, right, 2, 0.35, 0.45, 0.55, 0.65, 0.5103110999334604, 1, 4.000000,24.000000,1.000000,6.000000,0.500000,1.000000
o4NcyS1,200,0, test, 2, 7, 16, 1, 3, 3, 1, 0.35, 0.55, right, 2, 0.35, 0.45, 0.55, 0.65, 0.6054499000310898, 1, 5.000000,25.000000,1.000000,6.000000,0.500000,1.000000
o4NcyS1,200,0, test, 2, 7, 17, 4, 2, 2, 4, 0.65, 0.45, right, 2, 0.35, 0.45, 0.55, 0.65, 1.258325400063768, 1, 6.000000,26.000000,1.000000,6.000000,0.500000,1.000000
o4NcyS1,200,0, test, 2, 7, 18, 4, 2, 2, 4, 0.65, 0.45, right, 2, 0.35, 0.45, 0.55, 0.65, 0.7409564999397844, 1, 7.000000,27.000000,1.000000,6.000000,0.500000,1.000000
o4NcyS1,200,0, test, 2, 7, 19, 1, 4, 1, 4, 0.35, 0.65, left, 1, 0.35, 0.45, 0.55, 0.65, 2.816625300096348, 1, 8.000000,28.000000,1.000000,6.000000,0.500000,1.000000
o4NcyS1,200,0, test, 2, 7, 20, 4, 2, 2, 4, 0.65, 0.45, right, 2, 0.35, 0.45, 0.55, 0.65, 0.9486698999535292, 0, 8.000000,28.000000,1.000000,6.000000,0.500000,1.000000
o4NcyS1,200,0, test, 2, 7, 21, 2, 4, 4, 2, 0.45, 0.65, right, 2, 0.35, 0.45, 0.55, 0.65, 3.3999680001288652, 0, 8.000000,28.000000,1.000000,6.000000,0.500000,1.000000
o4NcyS1,200,0, test, 2, 7, 22, 3, 4, 4, 3, 0.55, 0.65, right, 2, 0.35, 0.45, 0.55, 0.65, 1.5112828998826444, 1, 9.000000,29.000000,1.000000,6.000000,0.500000,1.000000
o4NcyS1,200,0, test, 2, 7, 23, 1, 2, 1, 2, 0.35, 0.45, left, 1, 0.35, 0.45, 0.55, 0.65, 1.0110599999316037, 0, 9.000000,29.000000,1.000000,6.000000,0.500000,1.000000
o4NcyS1,200,0, test, 2, 7, 24, 1, 4, 4, 1, 0.35, 0.65, right, 2, 0.35, 0.45, 0.55, 0.65, 3.0118438999634236, 0, 9.000000,29.000000,1.000000,6.000000,0.500000,1.000000
o4NcyS1,200,0, test, 2, 7, 25, 3, 2, 3, 2, 0.55, 0.45, left, 1, 0.35, 0.45, 0.55, 0.65, 1.5830977999139577, 0, 9.000000,29.000000,1.000000,6.000000,0.500000,1.000000
o4NcyS1,200,0, test, 3, 1, 1, 2, 4, 4, 2, 0.45, 0.65, right, 2, 0.35, 0.45, 0.55, 0.65, 1.7709393999539316, 1, 1.000000,30.000000,1.000000,6.000000,0.500000,1.000000
o4NcyS1,200,0, test, 3, 1, 2, 4, 1, 1, 4, 0.65, 0.35, right, 2, 0.35, 0.45, 0.55, 0.65, 1.2958521998953074, 0, 1.000000,30.000000,1.000000,6.000000,0.500000,1.000000
o4NcyS1,200,0, test, 3, 1, 3, 1, 4, 4, 1, 0.35, 0.65, right, 2, 0.35, 0.45, 0.55, 0.65, 0.6983354999683797, 1, 2.000000,31.000000,1.000000,6.000000,0.500000,1.000000
o4NcyS1,200,0, test, 3, 1, 4, 2, 1, 1, 2, 0.45, 0.35, right, 2, 0.35, 0.45, 0.55, 0.65, 0.7465824999380857, 0, 2.000000,31.000000,1.000000,6.000000,0.500000,1.000000
o4NcyS1,200,0, test, 3, 1, 5, 1, 3, 3, 1, 0.35, 0.55, right, 2, 0.35, 0.45, 0.55, 0.65, 0.6493146999273449, 1, 3.000000,32.000000,1.000000,6.000000,0.500000,1.000000
o4NcyS1,200,0, test, 3, 1, 6, 2, 4, 4, 2, 0.45, 0.65, right, 2, 0.35, 0.45, 0.55, 0.65, 0.9829353999812156, 0, 3.000000,32.000000,1.000000,6.000000,0.500000,1.000000
o4NcyS1,200,0, test, 3, 1, 7, 3, 4, 4, 3, 0.55, 0.65, right, 2, 0.35, 0.45, 0.55, 0.65, 1.1485236999578774, 1, 4.000000,33.000000,1.000000,6.000000,0.500000,1.000000
o4NcyS1,200,0, test, 3, 1, 8, 2, 4, 2, 4, 0.45, 0.65, left, 1, 0.35, 0.45, 0.55, 0.65, 0.77184549998492, 0, 4.000000,33.000000,1.000000,6.000000,0.500000,1.000000
o4NcyS1,200,0, test, 3, 1, 9, 3, 4, 4, 3, 0.55, 0.65, right, 2, 0.35, 0.45, 0.55, 0.65, 1.2980197998695076, 1, 5.000000,34.000000,1.000000,6.000000,0.500000,1.000000
o4NcyS1,200,0, test, 3, 1, 10, 1, 2, 2, 1, 0.35, 0.45, right, 2, 0.35, 0.45, 0.55, 0.65, 1.0864695999771357, 0, 5.000000,34.000000,1.000000,6.000000,0.500000,1.000000
o4NcyS1,200,0, test, 3, 1, 11, 1, 4, 4, 1, 0.35, 0.65, right, 2, 0.35, 0.45, 0.55, 0.65, 2.495162900071591, 0, 5.000000,34.000000,1.000000,6.000000,0.500000,1.000000
o4NcyS1,200,0, test, 3, 1, 12, 4, 2, 4, 2, 0.65, 0.45, left, 1, 0.35, 0.45, 0.55, 0.65, 0.38318589981645346, 1, 6.000000,35.000000,1.000000,6.000000,0.500000,1.000000
o4NcyS1,200,0, test, 3, 1, 13, 1, 2, 1, 2, 0.35, 0.45, left, 1, 0.35, 0.45, 0.55, 0.65, 1.2971378001384437, 0, 6.000000,35.000000,1.000000,6.000000,0.500000,1.000000
o4NcyS1,200,0, test, 3, 1, 14, 4, 1, 4, 1, 0.65, 0.35, left, 1, 0.35, 0.45, 0.55, 0.65, 0.8740127999335527, 1, 7.000000,36.000000,1.000000,6.000000,0.500000,1.000000
o4NcyS1,200,0, test, 3, 1, 15, 2, 1, 2, 1, 0.45, 0.35, left, 1, 0.35, 0.45, 0.55, 0.65, 1.7351106000132859, 0, 7.000000,36.000000,1.000000,6.000000,0.500000,1.000000
o4NcyS1,200,0, test, 3, 1, 16, 1, 3, 3, 1, 0.35, 0.55, right, 2, 0.35, 0.45, 0.55, 0.65, 1.4944554998073727, 0, 7.000000,36.000000,1.000000,6.000000,0.500000,1.000000
o4NcyS1,200,0, test, 3, 1, 17, 3, 2, 3, 2, 0.55, 0.45, left, 1, 0.35, 0.45, 0.55, 0.65, 1.0311340999323875, 0, 7.000000,36.000000,1.000000,6.000000,0.500000,1.000000
o4NcyS1,200,0, test, 3, 1, 18, 4, 2, 4, 2, 0.65, 0.45, left, 1, 0.35, 0.45, 0.55, 0.65, 1.1551469000987709, 1, 8.000000,37.000000,1.000000,6.000000,0.500000,1.000000
o4NcyS1,200,0, test, 3, 1, 19, 4, 1, 4, 1, 0.65, 0.35, left, 1, 0.35, 0.45, 0.55, 0.65, 1.7015821000095457, 1, 9.000000,38.000000,1.000000,6.000000,0.500000,1.000000
o4NcyS1,200,0, test, 3, 1, 20, 2, 1, 2, 1, 0.45, 0.35, left, 1, 0.35, 0.45, 0.55, 0.65, 2.3346378998830914, 0, 9.000000,38.000000,1.000000,6.000000,0.500000,1.000000
o4NcyS1,200,0, test, 3, 1, 21, 3, 2, 2, 3, 0.55, 0.45, right, 2, 0.35, 0.45, 0.55, 0.65, 1.8059330999385566, 1, 10.000000,39.000000,1.000000,6.000000,0.500000,1.000000
o4NcyS1,200,0, test, 3, 1, 22, 4, 1, 1, 4, 0.65, 0.35, right, 2, 0.35, 0.45, 0.55, 0.65, 1.2003417999949306, 0, 10.000000,39.000000,1.000000,6.000000,0.500000,1.000000
o4NcyS1,200,0, test, 3, 1, 23, 3, 1, 3, 1, 0.55, 0.35, left, 1, 0.35, 0.45, 0.55, 0.65, 0.8849999001249671, 1, 11.000000,40.000000,1.000000,6.000000,0.500000,1.000000
o4NcyS1,200,0, test, 3, 1, 24, 3, 2, 2, 3, 0.55, 0.45, right, 2, 0.35, 0.45, 0.55, 0.65, 2.924091699998826, 1, 12.000000,41.000000,1.000000,6.000000,0.500000,1.000000
o4NcyS1,200,0, test, 3, 1, 25, 4, 2, 4, 2, 0.65, 0.45, left, 1, 0.35, 0.45, 0.55, 0.65, 0.7460489999502897, 0, 12.000000,41.000000,1.000000,6.000000,0.500000,1.000000
o4NcyS1,200,0, test, 4, 7, 1, 2, 4, 4, 2, 0.45, 0.65, right, 2, 0.35, 0.45, 0.55, 0.65, 1.1476004000287503, 1, 1.000000,42.000000,1.000000,6.000000,0.500000,1.000000
o4NcyS1,200,0, test, 4, 7, 2, 1, 4, 1, 4, 0.35, 0.65, left, 1, 0.35, 0.45, 0.55, 0.65, 1.4104659999720752, 0, 1.000000,42.000000,1.000000,6.000000,0.500000,1.000000
o4NcyS1,200,0, test, 4, 7, 3, 3, 1, 3, 1, 0.55, 0.35, left, 1, 0.35, 0.45, 0.55, 0.65, 3.1876888000406325, 0, 1.000000,42.000000,1.000000,6.000000,0.500000,1.000000
o4NcyS1,200,0, test, 4, 7, 4, 2, 1, 1, 2, 0.45, 0.35, right, 2, 0.35, 0.45, 0.55, 0.65, 0.5794130000285804, 0, 1.000000,42.000000,1.000000,6.000000,0.500000,1.000000
o4NcyS1,200,0, test, 4, 7, 5, 4, 1, 1, 4, 0.65, 0.35, right, 2, 0.35, 0.45, 0.55, 0.65, 1.4784588001202792, 0, 1.000000,42.000000,1.000000,6.000000,0.500000,1.000000
o4NcyS1,200,0, test, 4, 7, 6, 2, 3, 2, 3, 0.45, 0.55, left, 1, 0.35, 0.45, 0.55, 0.65, 1.2316386001184583, 1, 2.000000,43.000000,1.000000,6.000000,0.500000,1.000000
o4NcyS1,200,0, test, 4, 7, 7, 1, 3, 3, 1, 0.35, 0.55, right, 2, 0.35, 0.45, 0.55, 0.65, 1.2428800999186933, 1, 3.000000,44.000000,1.000000,6.000000,0.500000,1.000000
o4NcyS1,200,0, test, 4, 7, 8, 1, 3, 1, 3, 0.35, 0.55, left, 1, 0.35, 0.45, 0.55, 0.65, 0.32435310003347695, 1, 4.000000,45.000000,1.000000,6.000000,0.500000,1.000000
o4NcyS1,200,0, test, 4, 7, 9, 1, 4, 1, 4, 0.35, 0.65, left, 1, 0.35, 0.45, 0.55, 0.65, 1.0840632999315858, 1, 5.000000,46.000000,1.000000,6.000000,0.500000,1.000000
o4NcyS1,200,0, test, 4, 7, 10, 4, 3, 3, 4, 0.65, 0.55, right, 2, 0.35, 0.45, 0.55, 0.65, 1.0621740000788122, 1, 6.000000,47.000000,1.000000,6.000000,0.500000,1.000000
o4NcyS1,200,0, test, 4, 7, 11, 1, 3, 1, 3, 0.35, 0.55, left, 1, 0.35, 0.45, 0.55, 0.65, 1.3546873000450432, 1, 7.000000,48.000000,1.000000,6.000000,0.500000,1.000000
o4NcyS1,200,0, test, 4, 7, 12, 1, 3, 3, 1, 0.35, 0.55, right, 2, 0.35, 0.45, 0.55, 0.65, 0.5144778999965638, 1, 8.000000,49.000000,1.000000,6.000000,0.500000,1.000000
o4NcyS1,200,0, test, 4, 7, 13, 1, 2, 1, 2, 0.35, 0.45, left, 1, 0.35, 0.45, 0.55, 0.65, 0.5134472998324782, 0, 8.000000,49.000000,1.000000,6.000000,0.500000,1.000000
o4NcyS1,200,0, test, 4, 7, 14, 2, 1, 1, 2, 0.45, 0.35, right, 2, 0.35, 0.45, 0.55, 0.65, 0.3412842999678105, 0, 8.000000,49.000000,1.000000,6.000000,0.500000,1.000000
o4NcyS1,200,0, test, 4, 7, 15, 1, 2, 1, 2, 0.35, 0.45, left, 1, 0.35, 0.45, 0.55, 0.65, 1.1757402000948787, 0, 8.000000,49.000000,1.000000,6.000000,0.500000,1.000000
o4NcyS1,200,0, test, 4, 7, 16, 2, 3, 2, 3, 0.45, 0.55, left, 1, 0.35, 0.45, 0.55, 0.65, 1.2895300998352468, 0, 8.000000,49.000000,1.000000,6.000000,0.500000,1.000000
o4NcyS1,200,0, test, 4, 7, 17, 3, 4, 4, 3, 0.55, 0.65, right, 2, 0.35, 0.45, 0.55, 0.65, 3.7226748999673873, 1, 9.000000,50.000000,1.000000,6.000000,0.500000,1.000000
o4NcyS1,200,0, test, 4, 7, 18, 3, 4, 4, 3, 0.55, 0.65, right, 2, 0.35, 0.45, 0.55, 0.65, 0.510271199978888, 1, 10.000000,51.000000,1.000000,6.000000,0.500000,1.000000
o4NcyS1,200,0, test, 4, 7, 19, 1, 2, 2, 1, 0.35, 0.45, right, 2, 0.35, 0.45, 0.55, 0.65, 1.124664400005713, 1, 11.000000,52.000000,1.000000,6.000000,0.500000,1.000000
o4NcyS1,200,0, test, 4, 7, 20, 3, 4, 4, 3, 0.55, 0.65, right, 2, 0.35, 0.45, 0.55, 0.65, 1.273758800001815, 1, 12.000000,53.000000,1.000000,6.000000,0.500000,1.000000
o4NcyS1,200,0, test, 4, 7, 21, 3, 2, 2, 3, 0.55, 0.45, right, 2, 0.35, 0.45, 0.55, 0.65, 2.078512400155887, 0, 12.000000,53.000000,1.000000,6.000000,0.500000,1.000000
o4NcyS1,200,0, test, 4, 7, 22, 1, 2, 2, 1, 0.35, 0.45, right, 2, 0.35, 0.45, 0.55, 0.65, 1.250739799812436, 0, 12.000000,53.000000,1.000000,6.000000,0.500000,1.000000
o4NcyS1,200,0, test, 4, 7, 23, 1, 4, 1, 4, 0.35, 0.65, left, 1, 0.35, 0.45, 0.55, 0.65, 0.4055720998439938, 0, 12.000000,53.000000,1.000000,6.000000,0.500000,1.000000
o4NcyS1,200,0, test, 4, 7, 24, 2, 4, 4, 2, 0.45, 0.65, right, 2, 0.35, 0.45, 0.55, 0.65, 1.422315000090748, 1, 13.000000,54.000000,1.000000,6.000000,0.500000,1.000000
o4NcyS1,200,0, test, 4, 7, 25, 2, 1, 2, 1, 0.45, 0.35, left, 1, 0.35, 0.45, 0.55, 0.65, 0.32569620013237, 0, 13.000000,54.000000,1.000000,6.000000,0.500000,1.000000
o4NcyS1,200,0, test, 5, 1, 1, 2, 1, 2, 1, 0.45, 0.35, left, 1, 0.35, 0.45, 0.55, 0.65, 1.4831095000263304, 0, 0.000000,54.000000,1.000000,6.000000,0.500000,1.000000
o4NcyS1,200,0, test, 5, 1, 2, 3, 2, 2, 3, 0.55, 0.45, right, 2, 0.35, 0.45, 0.55, 0.65, 0.36442120000720024, 1, 1.000000,55.000000,1.000000,6.000000,0.500000,1.000000
o4NcyS1,200,0, test, 5, 1, 3, 3, 4, 4, 3, 0.55, 0.65, right, 2, 0.35, 0.45, 0.55, 0.65, 0.6493033999577165, 0, 1.000000,55.000000,1.000000,6.000000,0.500000,1.000000
o4NcyS1,200,0, test, 5, 1, 4, 3, 2, 3, 2, 0.55, 0.45, left, 1, 0.35, 0.45, 0.55, 0.65, 1.1240964999888092, 0, 1.000000,55.000000,1.000000,6.000000,0.500000,1.000000
o4NcyS1,200,0, test, 5, 1, 5, 4, 1, 1, 4, 0.65, 0.35, right, 2, 0.35, 0.45, 0.55, 0.65, 0.7190668999683112, 0, 1.000000,55.000000,1.000000,6.000000,0.500000,1.000000
o4NcyS1,200,0, test, 5, 1, 6, 4, 2, 4, 2, 0.65, 0.45, left, 1, 0.35, 0.45, 0.55, 0.65, 0.3281020000576973, 1, 2.000000,56.000000,1.000000,6.000000,0.500000,1.000000
o4NcyS1,200,0, test, 5, 1, 7, 4, 2, 4, 2, 0.65, 0.45, left, 1, 0.35, 0.45, 0.55, 0.65, 0.9961091999430209, 0, 2.000000,56.000000,1.000000,6.000000,0.500000,1.000000
o4NcyS1,200,0, test, 5, 1, 8, 4, 2, 2, 4, 0.65, 0.45, right, 2, 0.35, 0.45, 0.55, 0.65, 1.6836282999720424, 0, 2.000000,56.000000,1.000000,6.000000,0.500000,1.000000
o4NcyS1,200,0, test, 5, 1, 9, 2, 1, 1, 2, 0.45, 0.35, right, 2, 0.35, 0.45, 0.55, 0.65, 0.9221050997730345, 1, 3.000000,57.000000,1.000000,6.000000,0.500000,1.000000
o4NcyS1,200,0, test, 5, 1, 10, 1, 3, 3, 1, 0.35, 0.55, right, 2, 0.35, 0.45, 0.55, 0.65, 1.9934743999037892, 0, 3.000000,57.000000,1.000000,6.000000,0.500000,1.000000
o4NcyS1,200,0, test, 5, 1, 11, 2, 4, 4, 2, 0.45, 0.65, right, 2, 0.35, 0.45, 0.55, 0.65, 1.1017785998992622, 0, 3.000000,57.000000,1.000000,6.000000,0.500000,1.000000
o4NcyS1,200,0, test, 5, 1, 12, 2, 4, 2, 4, 0.45, 0.65, left, 1, 0.35, 0.45, 0.55, 0.65, 2.373882800107822, 0, 3.000000,57.000000,1.000000,6.000000,0.500000,1.000000
o4NcyS1,200,0, test, 5, 1, 13, 2, 3, 2, 3, 0.45, 0.55, left, 1, 0.35, 0.45, 0.55, 0.65, 0.9041190999560058, 1, 4.000000,58.000000,1.000000,6.000000,0.500000,1.000000
o4NcyS1,200,0, test, 5, 1, 14, 3, 1, 3, 1, 0.55, 0.35, left, 1, 0.35, 0.45, 0.55, 0.65, 1.1285405999515206, 1, 5.000000,59.000000,1.000000,6.000000,0.500000,1.000000
o4NcyS1,200,0, test, 5, 1, 15, 2, 3, 2, 3, 0.45, 0.55, left, 1, 0.35, 0.45, 0.55, 0.65, 1.1996481998357922, 1, 6.000000,60.000000,1.000000,6.000000,0.500000,1.000000
o4NcyS1,200,0, test, 5, 1, 16, 2, 1, 2, 1, 0.45, 0.35, left, 1, 0.35, 0.45, 0.55, 0.65, 1.3808925000485033, 1, 7.000000,61.000000,1.000000,6.000000,0.500000,1.000000
o4NcyS1,200,0, test, 5, 1, 17, 4, 1, 1, 4, 0.65, 0.35, right, 2, 0.35, 0.45, 0.55, 0.65, 0.3539474999997765, 1, 8.000000,62.000000,1.000000,6.000000,0.500000,1.000000
o4NcyS1,200,0, test, 5, 1, 18, 2, 1, 1, 2, 0.45, 0.35, right, 2, 0.35, 0.45, 0.55, 0.65, 0.8654817999340594, 1, 9.000000,63.000000,1.000000,6.000000,0.500000,1.000000
o4NcyS1,200,0, test, 5, 1, 19, 2, 1, 2, 1, 0.45, 0.35, left, 1, 0.35, 0.45, 0.55, 0.65, 0.5435387999750674, 0, 9.000000,63.000000,1.000000,6.000000,0.500000,1.000000
o4NcyS1,200,0, test, 5, 1, 20, 4, 3, 3, 4, 0.65, 0.55, right, 2, 0.35, 0.45, 0.55, 0.65, 0.36198840010911226, 1, 10.000000,64.000000,1.000000,6.000000,0.500000,1.000000
o4NcyS1,200,0, test, 5, 1, 21, 2, 4, 2, 4, 0.45, 0.65, left, 1, 0.35, 0.45, 0.55, 0.65, 0.8147489000111818, 0, 10.000000,64.000000,1.000000,6.000000,0.500000,1.000000
o4NcyS1,200,0, test, 5, 1, 22, 3, 1, 3, 1, 0.55, 0.35, left, 1, 0.35, 0.45, 0.55, 0.65, 0.5945818000473082, 1, 11.000000,65.000000,1.000000,6.000000,0.500000,1.000000
o4NcyS1,200,0, test, 5, 1, 23, 4, 2, 2, 4, 0.65, 0.45, right, 2, 0.35, 0.45, 0.55, 0.65, 0.8723323999438435, 0, 11.000000,65.000000,1.000000,6.000000,0.500000,1.000000
o4NcyS1,200,0, test, 5, 1, 24, 4, 1, 1, 4, 0.65, 0.35, right, 2, 0.35, 0.45, 0.55, 0.65, 0.5445080001372844, 1, 12.000000,66.000000,1.000000,6.000000,0.500000,1.000000
o4NcyS1,200,0, test, 5, 1, 25, 4, 2, 2, 4, 0.65, 0.45, right, 2, 0.35, 0.45, 0.55, 0.65, 0.5882961000315845, 0, 12.000000,66.000000,1.000000,6.000000,0.500000,1.000000
o4NcyS1,200,0, test, 6, 7, 1, 2, 3, 3, 2, 0.45, 0.55, right, 2, 0.35, 0.45, 0.55, 0.65, 0.7580264999996871, 1, 1.000000,67.000000,1.000000,6.000000,0.500000,1.000000
o4NcyS1,200,0, test, 6, 7, 2, 1, 4, 1, 4, 0.35, 0.65, left, 1, 0.35, 0.45, 0.55, 0.65, 1.0242021000012755, 1, 2.000000,68.000000,1.000000,6.000000,0.500000,1.000000
o4NcyS1,200,0, test, 6, 7, 3, 1, 4, 4, 1, 0.35, 0.65, right, 2, 0.35, 0.45, 0.55, 0.65, 0.7906272001564503, 0, 2.000000,68.000000,1.000000,6.000000,0.500000,1.000000
o4NcyS1,200,0, test, 6, 7, 4, 2, 4, 2, 4, 0.45, 0.65, left, 1, 0.35, 0.45, 0.55, 0.65, 0.8156652001198381, 0, 2.000000,68.000000,1.000000,6.000000,0.500000,1.000000
o4NcyS1,200,0, test, 6, 7, 5, 1, 2, 2, 1, 0.35, 0.45, right, 2, 0.35, 0.45, 0.55, 0.65, 2.635852200211957, 0, 2.000000,68.000000,1.000000,6.000000,0.500000,1.000000
o4NcyS1,200,0, test, 6, 7, 6, 4, 2, 2, 4, 0.65, 0.45, right, 2, 0.35, 0.45, 0.55, 0.65, 1.2908130001742393, 1, 3.000000,69.000000,1.000000,6.000000,0.500000,1.000000
o4NcyS1,200,0, test, 6, 7, 7, 2, 1, 1, 2, 0.45, 0.35, right, 2, 0.35, 0.45, 0.55, 0.65, 1.1108411001041532, 0, 3.000000,69.000000,1.000000,6.000000,0.500000,1.000000
o4NcyS1,200,0, test, 6, 7, 8, 4, 2, 2, 4, 0.65, 0.45, right, 2, 0.35, 0.45, 0.55, 0.65, 1.0083265001885593, 0, 3.000000,69.000000,1.000000,6.000000,0.500000,1.000000
o4NcyS1,200,0, test, 6, 7, 9, 3, 4, 4, 3, 0.55, 0.65, right, 2, 0.35, 0.45, 0.55, 0.65, 1.0188227999024093, 0, 3.000000,69.000000,1.000000,6.000000,0.500000,1.000000
o4NcyS1,200,0, test, 6, 7, 10, 2, 3, 2, 3, 0.45, 0.55, left, 1, 0.35, 0.45, 0.55, 0.65, 1.100315999938175, 0, 3.000000,69.000000,1.000000,6.000000,0.500000,1.000000
o4NcyS1,200,0, test, 6, 7, 11, 4, 1, 4, 1, 0.65, 0.35, left, 1, 0.35, 0.45, 0.55, 0.65, 2.120888799894601, 1, 4.000000,70.000000,1.000000,6.000000,0.500000,1.000000
o4NcyS1,200,0, test, 6, 7, 12, 2, 3, 3, 2, 0.45, 0.55, right, 2, 0.35, 0.45, 0.55, 0.65, 0.9673599998932332, 1, 5.000000,71.000000,1.000000,6.000000,0.500000,1.000000
o4NcyS1,200,0, test, 6, 7, 13, 4, 1, 1, 4, 0.65, 0.35, right, 2, 0.35, 0.45, 0.55, 0.65, 0.5709167998284101, 1, 6.000000,72.000000,1.000000,6.000000,0.500000,1.000000
o4NcyS1,200,0, test, 6, 7, 14, 1, 3, 3, 1, 0.35, 0.55, right, 2, 0.35, 0.45, 0.55, 0.65, 1.7369846999645233, 0, 6.000000,72.000000,1.000000,6.000000,0.500000,1.000000
o4NcyS1,200,0, test, 6, 7, 15, 2, 1, 2, 1, 0.45, 0.35, left, 1, 0.35, 0.45, 0.55, 0.65, 1.0315033001825213, 1, 7.000000,73.000000,1.000000,6.000000,0.500000,1.000000
o4NcyS1,200,0, test, 6, 7, 16, 3, 1, 1, 3, 0.55, 0.35, right, 2, 0.35, 0.45, 0.55, 0.65, 1.937966899946332, 1, 8.000000,74.000000,1.000000,6.000000,0.500000,1.000000
o4NcyS1,200,0, test, 6, 7, 17, 3, 1, 1, 3, 0.55, 0.35, right, 2, 0.35, 0.45, 0.55, 0.65, 1.1455815001390874, 0, 8.000000,74.000000,1.000000,6.000000,0.500000,1.000000
o4NcyS1,200,0, test, 6, 7, 18, 4, 1, 1, 4, 0.65, 0.35, right, 2, 0.35, 0.45, 0.55, 0.65, 0.7637365001719445, 0, 8.000000,74.000000,1.000000,6.000000,0.500000,1.000000
o4NcyS1,200,0, test, 6, 7, 19, 4, 2, 2, 4, 0.65, 0.45, right, 2, 0.35, 0.45, 0.55, 0.65, 1.8013213998638093, 1, 9.000000,75.000000,1.000000,6.000000,0.500000,1.000000
o4NcyS1,200,0, test, 6, 7, 20, 4, 3, 3, 4, 0.65, 0.55, right, 2, 0.35, 0.45, 0.55, 0.65, 0.4424735000357032, 0, 9.000000,75.000000,1.000000,6.000000,0.500000,1.000000
o4NcyS1,200,0, test, 6, 7, 21, 2, 1, 2, 1, 0.45, 0.35, left, 1, 0.35, 0.45, 0.55, 0.65, 0.696985200047493, 0, 9.000000,75.000000,1.000000,6.000000,0.500000,1.000000
o4NcyS1,200,0, test, 6, 7, 22, 1, 3, 3, 1, 0.35, 0.55, right, 2, 0.35, 0.45, 0.55, 0.65, 1.3299163000192493, 1, 10.000000,76.000000,1.000000,6.000000,0.500000,1.000000
o4NcyS1,200,0, test, 6, 7, 23, 4, 1, 4, 1, 0.65, 0.35, left, 1, 0.35, 0.45, 0.55, 0.65, 0.8852013000287116, 0, 10.000000,76.000000,1.000000,6.000000,0.500000,1.000000
o4NcyS1,200,0, test, 6, 7, 24, 1, 4, 4, 1, 0.35, 0.65, right, 2, 0.35, 0.45, 0.55, 0.65, 1.4792166000697762, 1, 11.000000,77.000000,1.000000,6.000000,0.500000,1.000000
o4NcyS1,200,0, test, 6, 7, 25, 1, 4, 4, 1, 0.35, 0.65, right, 2, 0.35, 0.45, 0.55, 0.65, 0.42436720011755824, 0, 11.000000,77.000000,1.000000,6.000000,0.500000,1.000000
o4NcyS1,200,0, test, 7, 1, 1, 4, 1, 4, 1, 0.65, 0.35, left, 1, 0.35, 0.45, 0.55, 0.65, 1.118670399999246, 1, 1.000000,78.000000,1.000000,6.000000,0.500000,1.000000
o4NcyS1,200,0, test, 7, 1, 2, 2, 3, 3, 2, 0.45, 0.55, right, 2, 0.35, 0.45, 0.55, 0.65, 0.7465494000352919, 0, 1.000000,78.000000,1.000000,6.000000,0.500000,1.000000
o4NcyS1,200,0, test, 7, 1, 3, 4, 2, 4, 2, 0.65, 0.45, left, 1, 0.35, 0.45, 0.55, 0.65, 1.5208688999991864, 0, 1.000000,78.000000,1.000000,6.000000,0.500000,1.000000
o4NcyS1,200,0, test, 7, 1, 4, 4, 2, 4, 2, 0.65, 0.45, left, 1, 0.35, 0.45, 0.55, 0.65, 1.209278300171718, 1, 2.000000,79.000000,1.000000,6.000000,0.500000,1.000000
o4NcyS1,200,0, test, 7, 1, 5, 3, 2, 2, 3, 0.55, 0.45, right, 2, 0.35, 0.45, 0.55, 0.65, 0.6246411001775414, 1, 3.000000,80.000000,1.000000,6.000000,0.500000,1.000000
o4NcyS1,200,0, test, 7, 1, 6, 4, 1, 4, 1, 0.65, 0.35, left, 1, 0.35, 0.45, 0.55, 0.65, 0.4843578999862075, 1, 4.000000,81.000000,1.000000,6.000000,0.500000,1.000000
o4NcyS1,200,0, test, 7, 1, 7, 1, 4, 1, 4, 0.35, 0.65, left, 1, 0.35, 0.45, 0.55, 0.65, 0.5185522998217493, 1, 5.000000,82.000000,1.000000,6.000000,0.500000,1.000000
o4NcyS1,200,0, test, 7, 1, 8, 4, 3, 4, 3, 0.65, 0.55, left, 1, 0.35, 0.45, 0.55, 0.65, 0.3857348000165075, 1, 6.000000,83.000000,1.000000,6.000000,0.500000,1.000000
o4NcyS1,200,0, test, 7, 1, 9, 4, 1, 1, 4, 0.65, 0.35, right, 2, 0.35, 0.45, 0.55, 0.65, 0.830898999935016, 1, 7.000000,84.000000,1.000000,6.000000,0.500000,1.000000
o4NcyS1,200,0, test, 7, 1, 10, 1, 2, 2, 1, 0.35, 0.45, right, 2, 0.35, 0.45, 0.55, 0.65, 1.4554273998364806, 0, 7.000000,84.000000,1.000000,6.000000,0.500000,1.000000
o4NcyS1,200,0, test, 7, 1, 11, 4, 2, 2, 4, 0.65, 0.45, right, 2, 0.35, 0.45, 0.55, 0.65, 0.6337598999962211, 0, 7.000000,84.000000,1.000000,6.000000,0.500000,1.000000
o4NcyS1,200,0, test, 7, 1, 12, 3, 1, 1, 3, 0.55, 0.35, right, 2, 0.35, 0.45, 0.55, 0.65, 1.7614215998910367, 1, 8.000000,85.000000,1.000000,6.000000,0.500000,1.000000
o4NcyS1,200,0, test, 7, 1, 13, 3, 1, 3, 1, 0.55, 0.35, left, 1, 0.35, 0.45, 0.55, 0.65, 0.4266609000042081, 1, 9.000000,86.000000,1.000000,6.000000,0.500000,1.000000
o4NcyS1,200,0, test, 7, 1, 14, 4, 2, 2, 4, 0.65, 0.45, right, 2, 0.35, 0.45, 0.55, 0.65, 0.7896461000200361, 1, 10.000000,87.000000,1.000000,6.000000,0.500000,1.000000
o4NcyS1,200,0, test, 7, 1, 15, 3, 1, 1, 3, 0.55, 0.35, right, 2, 0.35, 0.45, 0.55, 0.65, 0.6840244000777602, 0, 10.000000,87.000000,1.000000,6.000000,0.500000,1.000000
o4NcyS1,200,0, test, 7, 1, 16, 4, 3, 4, 3, 0.65, 0.55, left, 1, 0.35, 0.45, 0.55, 0.65, 0.9126514999661595, 1, 11.000000,88.000000,1.000000,6.000000,0.500000,1.000000
o4NcyS1,200,0, test, 7, 1, 17, 4, 3, 4, 3, 0.65, 0.55, left, 1, 0.35, 0.45, 0.55, 0.65, 0.8442778999451548, 1, 12.000000,89.000000,1.000000,6.000000,0.500000,1.000000
o4NcyS1,200,0, test, 7, 1, 18, 3, 1, 3, 1, 0.55, 0.35, left, 1, 0.35, 0.45, 0.55, 0.65, 0.7760304999537766, 0, 12.000000,89.000000,1.000000,6.000000,0.500000,1.000000
o4NcyS1,200,0, test, 7, 1, 19, 4, 2, 2, 4, 0.65, 0.45, right, 2, 0.35, 0.45, 0.55, 0.65, 0.6765521001070738, 1, 13.000000,90.000000,1.000000,6.000000,0.500000,1.000000
o4NcyS1,200,0, test, 7, 1, 20, 4, 3, 4, 3, 0.65, 0.55, left, 1, 0.35, 0.45, 0.55, 0.65, 0.878084999974817, 1, 14.000000,91.000000,1.000000,6.000000,0.500000,1.000000
o4NcyS1,200,0, test, 7, 1, 21, 3, 1, 3, 1, 0.55, 0.35, left, 1, 0.35, 0.45, 0.55, 0.65, 0.7467223999556154, 1, 15.000000,92.000000,1.000000,6.000000,0.500000,1.000000
o4NcyS1,200,0, test, 7, 1, 22, 4, 2, 2, 4, 0.65, 0.45, right, 2, 0.35, 0.45, 0.55, 0.65, 0.6293640998192132, 1, 16.000000,93.000000,1.000000,6.000000,0.500000,1.000000
o4NcyS1,200,0, test, 7, 1, 23, 1, 2, 2, 1, 0.35, 0.45, right, 2, 0.35, 0.45, 0.55, 0.65, 0.9734480001498014, 0, 16.000000,93.000000,1.000000,6.000000,0.500000,1.000000
o4NcyS1,200,0, test, 7, 1, 24, 4, 1, 4, 1, 0.65, 0.35, left, 1, 0.35, 0.45, 0.55, 0.65, 0.5302202999591827, 1, 17.000000,94.000000,1.000000,6.000000,0.500000,1.000000
o4NcyS1,200,0, test, 7, 1, 25, 1, 2, 1, 2, 0.35, 0.45, left, 1, 0.35, 0.45, 0.55, 0.65, 0.9467132000718266, 0, 17.000000,94.000000,1.000000,6.000000,0.500000,1.000000
o4NcyS1,200,0, test, 8, 7, 1, 2, 1, 1, 2, 0.45, 0.35, right, 2, 0.35, 0.45, 0.55, 0.65, 1.1925578000955284, 0, 0.000000,94.000000,1.000000,6.000000,0.500000,1.000000
o4NcyS1,200,0, test, 8, 7, 2, 1, 2, 2, 1, 0.35, 0.45, right, 2, 0.35, 0.45, 0.55, 0.65, 0.8268931999336928, 0, 0.000000,94.000000,1.000000,6.000000,0.500000,1.000000
o4NcyS1,200,0, test, 8, 7, 3, 4, 2, 4, 2, 0.65, 0.45, left, 1, 0.35, 0.45, 0.55, 0.65, 2.0890168000478297, 1, 1.000000,95.000000,1.000000,6.000000,0.500000,1.000000
o4NcyS1,200,0, test, 8, 7, 4, 2, 1, 2, 1, 0.45, 0.35, left, 1, 0.35, 0.45, 0.55, 0.65, 1.2910432999487966, 0, 1.000000,95.000000,1.000000,6.000000,0.500000,1.000000
o4NcyS1,200,0, test, 8, 7, 5, 4, 1, 4, 1, 0.65, 0.35, left, 1, 0.35, 0.45, 0.55, 0.65, 1.0120828000362962, 1, 2.000000,96.000000,1.000000,6.000000,0.500000,1.000000
o4NcyS1,200,0, test, 8, 7, 6, 1, 2, 2, 1, 0.35, 0.45, right, 2, 0.35, 0.45, 0.55, 0.65, 1.3959389000665396, 0, 2.000000,96.000000,1.000000,6.000000,0.500000,1.000000
o4NcyS1,200,0, test, 8, 7, 7, 2, 3, 2, 3, 0.45, 0.55, left, 1, 0.35, 0.45, 0.55, 0.65, 1.8799898999277502, 1, 3.000000,97.000000,1.000000,6.000000,0.500000,1.000000
o4NcyS1,200,0, test, 8, 7, 8, 2, 3, 3, 2, 0.45, 0.55, right, 2, 0.35, 0.45, 0.55, 0.65, 1.7410821998491883, 0, 3.000000,97.000000,1.000000,6.000000,0.500000,1.000000
o4NcyS1,200,0, test, 8, 7, 9, 1, 2, 2, 1, 0.35, 0.45, right, 2, 0.35, 0.45, 0.55, 0.65, 0.6233463999815285, 0, 3.000000,97.000000,1.000000,6.000000,0.500000,1.000000
o4NcyS1,200,0, test, 8, 7, 10, 2, 3, 3, 2, 0.45, 0.55, right, 2, 0.35, 0.45, 0.55, 0.65, 1.6349144000560045, 1, 4.000000,98.000000,1.000000,6.000000,0.500000,1.000000
o4NcyS1,200,0, test, 8, 7, 11, 1, 3, 3, 1, 0.35, 0.55, right, 2, 0.35, 0.45, 0.55, 0.65, 1.6423033999744803, 0, 4.000000,98.000000,1.000000,6.000000,0.500000,1.000000
o4NcyS1,200,0, test, 8, 7, 12, 4, 2, 4, 2, 0.65, 0.45, left, 1, 0.35, 0.45, 0.55, 0.65, 0.9126482999417931, 1, 5.000000,99.000000,1.000000,6.000000,0.500000,1.000000
o4NcyS1,200,0, test, 8, 7, 13, 4, 1, 4, 1, 0.65, 0.35, left, 1, 0.35, 0.45, 0.55, 0.65, 0.48893829993903637, 1, 6.000000,100.000000,1.000000,6.000000,0.500000,1.000000
o4NcyS1,200,0, test, 8, 7, 14, 3, 1, 3, 1, 0.55, 0.35, left, 1, 0.35, 0.45, 0.55, 0.65, 2.4608832001686096, 0, 6.000000,100.000000,1.000000,6.000000,0.500000,1.000000
o4NcyS1,200,0, test, 8, 7, 15, 2, 1, 1, 2, 0.45, 0.35, right, 2, 0.35, 0.45, 0.55, 0.65, 0.6906028999947011, 0, 6.000000,100.000000,1.000000,6.000000,0.500000,1.000000
o4NcyS1,200,0, test, 8, 7, 16, 1, 3, 1, 3, 0.35, 0.55, left, 1, 0.35, 0.45, 0.55, 0.65, 3.3759123000781983, 0, 6.000000,100.000000,1.000000,6.000000,0.500000,1.000000
o4NcyS1,200,0, test, 8, 7, 17, 4, 3, 4, 3, 0.65, 0.55, left, 1, 0.35, 0.45, 0.55, 0.65, 0.6045718998648226, 0, 6.000000,100.000000,1.000000,6.000000,0.500000,1.000000
o4NcyS1,200,0, test, 8, 7, 18, 4, 2, 2, 4, 0.65, 0.45, right, 2, 0.35, 0.45, 0.55, 0.65, 0.7933481999207288, 1, 7.000000,101.000000,1.000000,6.000000,0.500000,1.000000
o4NcyS1,200,0, test, 8, 7, 19, 2, 1, 2, 1, 0.45, 0.35, left, 1, 0.35, 0.45, 0.55, 0.65, 1.807190200081095, 1, 8.000000,102.000000,1.000000,6.000000,0.500000,1.000000
o4NcyS1,200,0, test, 8, 7, 20, 3, 1, 3, 1, 0.55, 0.35, left, 1, 0.35, 0.45, 0.55, 0.65, 0.6070371998939663, 1, 9.000000,103.000000,1.000000,6.000000,0.500000,1.000000
o4NcyS1,200,0, test, 8, 7, 21, 3, 2, 3, 2, 0.55, 0.45, left, 1, 0.35, 0.45, 0.55, 0.65, 0.5077983001247048, 0, 9.000000,103.000000,1.000000,6.000000,0.500000,1.000000
o4NcyS1,200,0, test, 8, 7, 22, 2, 1, 2, 1, 0.45, 0.35, left, 1, 0.35, 0.45, 0.55, 0.65, 1.075320899952203, 0, 9.000000,103.000000,1.000000,6.000000,0.500000,1.000000
o4NcyS1,200,0, test, 8, 7, 23, 4, 2, 2, 4, 0.65, 0.45, right, 2, 0.35, 0.45, 0.55, 0.65, 0.400794800138101, 1, 10.000000,104.000000,1.000000,6.000000,0.500000,1.000000
o4NcyS1,200,0, test, 8, 7, 24, 3, 2, 2, 3, 0.55, 0.45, right, 2, 0.35, 0.45, 0.55, 0.65, 0.7090576998889446, 0, 10.000000,104.000000,1.000000,6.000000,0.500000,1.000000
o4NcyS1,200,0, test, 8, 7, 25, 3, 1, 3, 1, 0.55, 0.35, left, 1, 0.35, 0.45, 0.55, 0.65, 1.062079300172627, 1, 11.000000,105.000000,1.000000,6.000000,0.500000,1.000000
