ShaharID, group, counterbalance, block_type, block, delay_condition, trial, chosen, unchosen, offer_left_image, offer_right_image, exp_value_chosen, exp_value_unchosen, choice_location, choice_key, exp_value1, exp_value2, exp_value3, exp_value4, RT, reward, coins_per_block, coins_per_task,ITI_duration,rt_deadline,choice_feedback_duration,outcome_duration
CkEbdOPj,100,1, practice, 1, 1, 1, 1, 4, 4, 1, 0.35, 0.65, right, 2, 0.35, 0.45, 0.55, 0.65, 1.3861201999825425, 1, 1.000000,1.000000,1.000000,6.000000,0.500000,1.000000
CkEbdOPj,100,1, practice, 1, 1, 2, 4, 2, 2, 4, 0.65, 0.45, right, 2, 0.35, 0.45, 0.55, 0.65, 0.26067230000626296, 0, 1.000000,1.000000,1.000000,6.000000,0.500000,1.000000
CkEbdOPj,100,1, practice, 1, 1, 3, 3, 2, 2, 3, 0.55, 0.45, right, 2, 0.35, 0.45, 0.55, 0.65, 0.434535899956245, 1, 2.000000,2.000000,1.000000,6.000000,0.500000,1.000000
CkEbdOPj,100,1, practice, 1, 1, 4, 3, 1, 1, 3, 0.55, 0.35, right, 2, 0.35, 0.45, 0.55, 0.65, 0.23013290000380948, 0, 2.000000,2.000000,1.000000,6.000000,0.500000,1.000000
CkEbdOPj,100,1, practice, 1, 1, 5, 4, 2, 2, 4, 0.65, 0.45, right, 2, 0.35, 0.45, 0.55, 0.65, 0.2888593999668956, 1, 3.000000,3.000000,1.000000,6.000000,0.500000,1.000000
CkEbdOPj,100,1, test, 1, 7, 1, 2, 1, 1, 2, 0.45, 0.35, right, 2, 0.35, 0.45, 0.55, 0.65, 0.7541862999787554, 0, 0.000000,3.000000,1.000000,6.000000,0.500000,1.000000
CkEbdOPj,100,1, test, 1, 7, 2, 3, 1, 3, 1, 0.55, 0.35, left, 1, 0.35, 0.45, 0.55, 0.65, 1.440760399971623, 1, 1.000000,4.000000,1.000000,6.000000,0.500000,1.000000
CkEbdOPj,100,1, test, 1, 7, 3, 2, 4, 2, 4, 0.45, 0.65, left, 1, 0.35, 0.45, 0.55, 0.65, 2.376021700038109, 1, 2.000000,5.000000,1.000000,6.000000,0.500000,1.000000
CkEbdOPj,100,1, test, 1, 7, 4, 3, 1, 3, 1, 0.55, 0.35, left, 1, 0.35, 0.45, 0.55, 0.65, 2.5455140999983996, 1, 3.000000,6.000000,1.000000,6.000000,0.500000,1.000000
CkEbdOPj,100,1, test, 1, 7, 5, 3, 4, 4, 3, 0.55, 0.65, right, 2, 0.35, 0.45, 0.55, 0.65, 1.9509685999946669, 1, 4.000000,7.000000,1.000000,6.000000,0.500000,1.000000
CkEbdOPj,100,1, test, 1, 7, 6, 4, 1, 4, 1, 0.65, 0.35, left, 1, 0.35, 0.45, 0.55, 0.65, 1.8190221000113524, 0, 4.000000,7.000000,1.000000,6.000000,0.500000,1.000000
CkEbdOPj,100,1, test, 1, 7, 7, 1, 4, 4, 1, 0.35, 0.65, right, 2, 0.35, 0.45, 0.55, 0.65, 0.8853987000184134, 0, 4.000000,7.000000,1.000000,6.000000,0.500000,1.000000
CkEbdOPj,100,1, test, 1, 7, 8, 4, 1, 1, 4, 0.65, 0.35, right, 2, 0.35, 0.45, 0.55, 0.65, 1.8243519999668933, 1, 5.000000,8.000000,1.000000,6.000000,0.500000,1.000000
CkEbdOPj,100,1, test, 1, 7, 9, 2, 3, 2, 3, 0.45, 0.55, left, 1, 0.35, 0.45, 0.55, 0.65, 1.3994855000055395, 0, 5.000000,8.000000,1.000000,6.000000,0.500000,1.000000
CkEbdOPj,100,1, test, 1, 7, 10, 3, 4, 4, 3, 0.55, 0.65, right, 2, 0.35, 0.45, 0.55, 0.65, 1.3730502999969758, 0, 5.000000,8.000000,1.000000,6.000000,0.500000,1.000000
CkEbdOPj,100,1, test, 1, 7, 11, 4, 2, 4, 2, 0.65, 0.45, left, 1, 0.35, 0.45, 0.55, 0.65, 0.9662712000426836, 1, 6.000000,9.000000,1.000000,6.000000,0.500000,1.000000
CkEbdOPj,100,1, test, 1, 7, 12, 3, 1, 3, 1, 0.55, 0.35, left, 1, 0.35, 0.45, 0.55, 0.65, 1.9319841000251472, 0, 6.000000,9.000000,1.000000,6.000000,0.500000,1.000000
CkEbdOPj,100,1, test, 1, 7, 13, 1, 2, 2, 1, 0.35, 0.45, right, 2, 0.35, 0.45, 0.55, 0.65, 0.5219949999591336, 1, 7.000000,10.000000,1.000000,6.000000,0.500000,1.000000
CkEbdOPj,100,1, test, 1, 7, 14, 4, 1, 1, 4, 0.65, 0.35, right, 2, 0.35, 0.45, 0.55, 0.65, 1.8353843999793753, 1, 8.000000,11.000000,1.000000,6.000000,0.500000,1.000000
CkEbdOPj,100,1, test, 1, 7, 15, 3, 2, 3, 2, 0.55, 0.45, left, 1, 0.35, 0.45, 0.55, 0.65, 1.4499480000231415, 0, 8.000000,11.000000,1.000000,6.000000,0.500000,1.000000
CkEbdOPj,100,1, test, 1, 7, 16, 4, 1, 4, 1, 0.65, 0.35, left, 1, 0.35, 0.45, 0.55, 0.65, 1.3844338999479078, 1, 9.000000,12.000000,1.000000,6.000000,0.500000,1.000000
CkEbdOPj,100,1, test, 1, 7, 17, 2, 3, 3, 2, 0.45, 0.55, right, 2, 0.35, 0.45, 0.55, 0.65, 2.0425847000442445, 1, 10.000000,13.000000,1.000000,6.000000,0.500000,1.000000
CkEbdOPj,100,1, test, 1, 7, 18, 3, 4, 4, 3, 0.55, 0.65, right, 2, 0.35, 0.45, 0.55, 0.65, 1.210035299998708, 1, 11.000000,14.000000,1.000000,6.000000,0.500000,1.000000
CkEbdOPj,100,1, test, 1, 7, 19, 4, 2, 2, 4, 0.65, 0.45, right, 2, 0.35, 0.45, 0.55, 0.65, 2.3548270000028424, 1, 12.000000,15.000000,1.000000,6.000000,0.500000,1.000000
CkEbdOPj,100,1, test, 1, 7, 20, 2, 1, 1, 2, 0.45, 0.35, right, 2, 0.35, 0.45, 0.55, 0.65, 1.989121399994474, 1, 13.000000,16.000000,1.000000,6.000000,0.500000,1.000000
CkEbdOPj,100,1, test, 1, 7, 21, 4, 2, 2, 4, 0.65, 0.45, right, 2, 0.35, 0.45, 0.55, 0.65, 1.4928682000027038, 1, 14.000000,17.000000,1.000000,6.000000,0.500000,1.000000
CkEbdOPj,100,1, test, 1, 7, 22, 2, 1, 2, 1, 0.45, 0.35, left, 1, 0.35, 0.45, 0.55, 0.65, 1.6353679000167176, 0, 14.000000,17.000000,1.000000,6.000000,0.500000,1.000000
CkEbdOPj,100,1, test, 1, 7, 23, 4, 1, 1, 4, 0.65, 0.35, right, 2, 0.35, 0.45, 0.55, 0.65, 1.6779154999530874, 0, 14.000000,17.000000,1.000000,6.000000,0.500000,1.000000
CkEbdOPj,100,1, test, 1, 7, 24, 3, 4, 3, 4, 0.55, 0.65, left, 1, 0.35, 0.45, 0.55, 0.65, 1.5093725000042468, 1, 15.000000,18.000000,1.000000,6.000000,0.500000,1.000000
CkEbdOPj,100,1, test, 1, 7, 25, 3, 1, 1, 3, 0.55, 0.35, right, 2, 0.35, 0.45, 0.55, 0.65, 1.9971455999766476, 0, 15.000000,18.000000,1.000000,6.000000,0.500000,1.000000
CkEbdOPj,100,1, test, 2, 1, 1, 1, 4, 4, 1, 0.35, 0.65, right, 2, 0.35, 0.45, 0.55, 0.65, 0.676367299980484, 1, 1.000000,19.000000,1.000000,6.000000,0.500000,1.000000
CkEbdOPj,100,1, test, 2, 1, 2, 1, 2, 2, 1, 0.35, 0.45, right, 2, 0.35, 0.45, 0.55, 0.65, 0.5055479999864474, 0, 1.000000,19.000000,1.000000,6.000000,0.500000,1.000000
CkEbdOPj,100,1, test, 2, 1, 3, 2, 1, 1, 2, 0.45, 0.35, right, 2, 0.35, 0.45, 0.55, 0.65, 1.0781104000052437, 1, 2.000000,20.000000,1.000000,6.000000,0.500000,1.000000
CkEbdOPj,100,1, test, 2, 1, 4, 1, 2, 2, 1, 0.35, 0.45, right, 2, 0.35, 0.45, 0.55, 0.65, 0.9812179000000469, 1, 3.000000,21.000000,1.000000,6.000000,0.500000,1.000000
CkEbdOPj,100,1, test, 2, 1, 5, 2, 1, 1, 2, 0.45, 0.35, right, 2, 0.35, 0.45, 0.55, 0.65, 1.2100434000021778, 1, 4.000000,22.000000,1.000000,6.000000,0.500000,1.000000
CkEbdOPj,100,1, test, 2, 1, 6, 1, 4, 4, 1, 0.35, 0.65, right, 2, 0.35, 0.45, 0.55, 0.65, 1.1830173000344075, 0, 4.000000,22.000000,1.000000,6.000000,0.500000,1.000000
CkEbdOPj,100,1, test, 2, 1, 7, 1, 3, 1, 3, 0.35, 0.55, left, 1, 0.35, 0.45, 0.55, 0.65, 1.6227424999815412, 1, 5.000000,23.000000,1.000000,6.000000,0.500000,1.000000
CkEbdOPj,100,1, test, 2, 1, 8, 3, 1, 3, 1, 0.55, 0.35, left, 1, 0.35, 0.45, 0.55, 0.65, 0.9544955000164919, 0, 5.000000,23.000000,1.000000,6.000000,0.500000,1.000000
CkEbdOPj,100,1, test, 2, 1, 9, 3, 4, 3, 4, 0.55, 0.65, left, 1, 0.35, 0.45, 0.55, 0.65, 2.182331999996677, 1, 6.000000,24.000000,1.000000,6.000000,0.500000,1.000000
CkEbdOPj,100,1, test, 2, 1, 10, 4, 2, 4, 2, 0.65, 0.45, left, 1, 0.35, 0.45, 0.55, 0.65, 1.419092099997215, 1, 7.000000,25.000000,1.000000,6.000000,0.500000,1.000000
CkEbdOPj,100,1, test, 2, 1, 11, 1, 4, 4, 1, 0.35, 0.65, right, 2, 0.35, 0.45, 0.55, 0.65, 1.4112105999956839, 0, 7.000000,25.000000,1.000000,6.000000,0.500000,1.000000
CkEbdOPj,100,1, test, 2, 1, 12, 4, 2, 4, 2, 0.65, 0.45, left, 1, 0.35, 0.45, 0.55, 0.65, 1.094507000001613, 0, 7.000000,25.000000,1.000000,6.000000,0.500000,1.000000
CkEbdOPj,100,1, test, 2, 1, 13, 2, 4, 2, 4, 0.45, 0.65, left, 1, 0.35, 0.45, 0.55, 0.65, 0.9082596999942325, 0, 7.000000,25.000000,1.000000,6.000000,0.500000,1.000000
CkEbdOPj,100,1, test, 2, 1, 14, 1, 3, 1, 3, 0.35, 0.55, left, 1, 0.35, 0.45, 0.55, 0.65, 1.1177723999717273, 0, 7.000000,25.000000,1.000000,6.000000,0.500000,1.000000
CkEbdOPj,100,1, test, 2, 1, 15, 3, 1, 1, 3, 0.55, 0.35, right, 2, 0.35, 0.45, 0.55, 0.65, 0.4370122999534942, 0, 7.000000,25.000000,1.000000,6.000000,0.500000,1.000000
CkEbdOPj,100,1, test, 2, 1, 16, 4, 2, 4, 2, 0.65, 0.45, left, 1, 0.35, 0.45, 0.55, 0.65, 1.1489792999927886, 1, 8.000000,26.000000,1.000000,6.000000,0.500000,1.000000
CkEbdOPj,100,1, test, 2, 1, 17, 1, 4, 4, 1, 0.35, 0.65, right, 2, 0.35, 0.45, 0.55, 0.65, 1.0841489000013098, 1, 9.000000,27.000000,1.000000,6.000000,0.500000,1.000000
CkEbdOPj,100,1, test, 2, 1, 18, 3, 2, 3, 2, 0.55, 0.45, left, 1, 0.35, 0.45, 0.55, 0.65, 1.2604677000199445, 1, 10.000000,28.000000,1.000000,6.000000,0.500000,1.000000
CkEbdOPj,100,1, test, 2, 1, 19, 4, 2, 2, 4, 0.65, 0.45, right, 2, 0.35, 0.45, 0.55, 0.65, 1.1833784999907948, 0, 10.000000,28.000000,1.000000,6.000000,0.500000,1.000000
CkEbdOPj,100,1, test, 2, 1, 20, 1, 3, 1, 3, 0.35, 0.55, left, 1, 0.35, 0.45, 0.55, 0.65, 1.0131085999892093, 0, 10.000000,28.000000,1.000000,6.000000,0.500000,1.000000
CkEbdOPj,100,1, test, 2, 1, 21, 2, 3, 2, 3, 0.45, 0.55, left, 1, 0.35, 0.45, 0.55, 0.65, 1.3118643999914639, 0, 10.000000,28.000000,1.000000,6.000000,0.500000,1.000000
CkEbdOPj,100,1, test, 2, 1, 22, 2, 1, 1, 2, 0.45, 0.35, right, 2, 0.35, 0.45, 0.55, 0.65, 0.8297900999896228, 0, 10.000000,28.000000,1.000000,6.000000,0.500000,1.000000
CkEbdOPj,100,1, test, 2, 1, 23, 3, 1, 3, 1, 0.55, 0.35, left, 1, 0.35, 0.45, 0.55, 0.65, 0.5527209999854676, 1, 11.000000,29.000000,1.000000,6.000000,0.500000,1.000000
CkEbdOPj,100,1, test, 2, 1, 24, 2, 3, 2, 3, 0.45, 0.55, left, 1, 0.35, 0.45, 0.55, 0.65, 1.0399744000169449, 0, 11.000000,29.000000,1.000000,6.000000,0.500000,1.000000
CkEbdOPj,100,1, test, 2, 1, 25, 1, 3, 3, 1, 0.35, 0.55, right, 2, 0.35, 0.45, 0.55, 0.65, 1.2657854999997653, 1, 12.000000,30.000000,1.000000,6.000000,0.500000,1.000000
CkEbdOPj,100,1, test, 3, 7, 1, 1, 3, 3, 1, 0.35, 0.55, right, 2, 0.35, 0.45, 0.55, 0.65, 0.3970193999703042, 0, 0.000000,30.000000,1.000000,6.000000,0.500000,1.000000
CkEbdOPj,100,1, test, 3, 7, 2, 3, 1, 3, 1, 0.55, 0.35, left, 1, 0.35, 0.45, 0.55, 0.65, 0.5582489999942482, 1, 1.000000,31.000000,1.000000,6.000000,0.500000,1.000000
CkEbdOPj,100,1, test, 3, 7, 3, 4, 1, 1, 4, 0.65, 0.35, right, 2, 0.35, 0.45, 0.55, 0.65, 1.116489200037904, 1, 2.000000,32.000000,1.000000,6.000000,0.500000,1.000000
CkEbdOPj,100,1, test, 3, 7, 4, 4, 1, 1, 4, 0.65, 0.35, right, 2, 0.35, 0.45, 0.55, 0.65, 0.5844820000347681, 0, 2.000000,32.000000,1.000000,6.000000,0.500000,1.000000
CkEbdOPj,100,1, test, 3, 7, 5, 3, 1, 3, 1, 0.55, 0.35, left, 1, 0.35, 0.45, 0.55, 0.65, 1.577822399965953, 0, 2.000000,32.000000,1.000000,6.000000,0.500000,1.000000
CkEbdOPj,100,1, test, 3, 7, 6, 2, 3, 3, 2, 0.45, 0.55, right, 2, 0.35, 0.45, 0.55, 0.65, 0.6382356000249274, 1, 3.000000,33.000000,1.000000,6.000000,0.500000,1.000000
CkEbdOPj,100,1, test, 3, 7, 7, 1, 3, 3, 1, 0.35, 0.55, right, 2, 0.35, 0.45, 0.55, 0.65, 1.0856170000042766, 1, 4.000000,34.000000,1.000000,6.000000,0.500000,1.000000
CkEbdOPj,100,1, test, 3, 7, 8, 4, 2, 4, 2, 0.65, 0.45, left, 1, 0.35, 0.45, 0.55, 0.65, 0.8192229000269435, 1, 5.000000,35.000000,1.000000,6.000000,0.500000,1.000000
CkEbdOPj,100,1, test, 3, 7, 9, 2, 1, 2, 1, 0.45, 0.35, left, 1, 0.35, 0.45, 0.55, 0.65, 1.6242820000043139, 0, 5.000000,35.000000,1.000000,6.000000,0.500000,1.000000
CkEbdOPj,100,1, test, 3, 7, 10, 4, 3, 3, 4, 0.65, 0.55, right, 2, 0.35, 0.45, 0.55, 0.65, 1.363740200002212, 0, 5.000000,35.000000,1.000000,6.000000,0.500000,1.000000
CkEbdOPj,100,1, test, 3, 7, 11, 4, 1, 4, 1, 0.65, 0.35, left, 1, 0.35, 0.45, 0.55, 0.65, 0.8218238999834284, 0, 5.000000,35.000000,1.000000,6.000000,0.500000,1.000000
CkEbdOPj,100,1, test, 3, 7, 12, 3, 4, 3, 4, 0.55, 0.65, left, 1, 0.35, 0.45, 0.55, 0.65, 1.4977897999924608, 1, 6.000000,36.000000,1.000000,6.000000,0.500000,1.000000
CkEbdOPj,100,1, test, 3, 7, 13, 4, 2, 2, 4, 0.65, 0.45, right, 2, 0.35, 0.45, 0.55, 0.65, 1.3726274999789894, 0, 6.000000,36.000000,1.000000,6.000000,0.500000,1.000000
CkEbdOPj,100,1, test, 3, 7, 14, 2, 4, 2, 4, 0.45, 0.65, left, 1, 0.35, 0.45, 0.55, 0.65, 1.1603838999872096, 0, 6.000000,36.000000,1.000000,6.000000,0.500000,1.000000
CkEbdOPj,100,1, test, 3, 7, 15, 1, 2, 2, 1, 0.35, 0.45, right, 2, 0.35, 0.45, 0.55, 0.65, 1.2546755999792367, 0, 6.000000,36.000000,1.000000,6.000000,0.500000,1.000000
CkEbdOPj,100,1, test, 3, 7, 16, 4, 2, 2, 4, 0.65, 0.45, right, 2, 0.35, 0.45, 0.55, 0.65, 1.1640411000116728, 1, 7.000000,37.000000,1.000000,6.000000,0.500000,1.000000
CkEbdOPj,100,1, test, 3, 7, 17, 1, 2, 2, 1, 0.35, 0.45, right, 2, 0.35, 0.45, 0.55, 0.65, 1.7917390000075102, 1, 8.000000,38.000000,1.000000,6.000000,0.500000,1.000000
CkEbdOPj,100,1, test, 3, 7, 18, 1, 2, 1, 2, 0.35, 0.45, left, 1, 0.35, 0.45, 0.55, 0.65, 1.3443242999492213, 1, 9.000000,39.000000,1.000000,6.000000,0.500000,1.000000
CkEbdOPj,100,1, test, 3, 7, 19, 2, 4, 4, 2, 0.45, 0.65, right, 2, 0.35, 0.45, 0.55, 0.65, 1.4505958000081591, 0, 9.000000,39.000000,1.000000,6.000000,0.500000,1.000000
CkEbdOPj,100,1, test, 3, 7, 20, 4, 1, 4, 1, 0.65, 0.35, left, 1, 0.35, 0.45, 0.55, 0.65, 2.2685942000243813, 0, 9.000000,39.000000,1.000000,6.000000,0.500000,1.000000
CkEbdOPj,100,1, test, 3, 7, 21, 4, 2, 2, 4, 0.65, 0.45, right, 2, 0.35, 0.45, 0.55, 0.65, 1.7550612000050023, 0, 9.000000,39.000000,1.000000,6.000000,0.500000,1.000000
CkEbdOPj,100,1, test, 3, 7, 22, 1, 4, 4, 1, 0.35, 0.65, right, 2, 0.35, 0.45, 0.55, 0.65, 0.7305235999519937, 1, 10.000000,40.000000,1.000000,6.000000,0.500000,1.000000
CkEbdOPj,100,1, test, 3, 7, 23, 3, 2, 3, 2, 0.55, 0.45, left, 1, 0.35, 0.45, 0.55, 0.65, 1.592996800027322, 1, 11.000000,41.000000,1.000000,6.000000,0.500000,1.000000
CkEbdOPj,100,1, test, 3, 7, 24, 1, 4, 4, 1, 0.35, 0.65, right, 2, 0.35, 0.45, 0.55, 0.65, 1.353895400010515, 0, 11.000000,41.000000,1.000000,6.000000,0.500000,1.000000
CkEbdOPj,100,1, test, 3, 7, 25, 1, 3, 3, 1, 0.35, 0.55, right, 2, 0.35, 0.45, 0.55, 0.65, 1.1441615000367165, 0, 11.000000,41.000000,1.000000,6.000000,0.500000,1.000000
CkEbdOPj,100,1, test, 4, 1, 1, 2, 4, 4, 2, 0.45, 0.65, right, 2, 0.35, 0.45, 0.55, 0.65, 0.5511084999889135, 0, 0.000000,41.000000,1.000000,6.000000,0.500000,1.000000
CkEbdOPj,100,1, test, 4, 1, 2, 4, 3, 3, 4, 0.65, 0.55, right, 2, 0.35, 0.45, 0.55, 0.65, 1.0629674000083469, 1, 1.000000,42.000000,1.000000,6.000000,0.500000,1.000000
CkEbdOPj,100,1, test, 4, 1, 3, 4, 3, 3, 4, 0.65, 0.55, right, 2, 0.35, 0.45, 0.55, 0.65, 0.585592599993106, 0, 1.000000,42.000000,1.000000,6.000000,0.500000,1.000000
CkEbdOPj,100,1, test, 4, 1, 4, 1, 3, 1, 3, 0.35, 0.55, left, 1, 0.35, 0.45, 0.55, 0.65, 1.4819977000006475, 0, 1.000000,42.000000,1.000000,6.000000,0.500000,1.000000
CkEbdOPj,100,1, test, 4, 1, 5, 1, 2, 2, 1, 0.35, 0.45, right, 2, 0.35, 0.45, 0.55, 0.65, 0.8532430999912322, 0, 1.000000,42.000000,1.000000,6.000000,0.500000,1.000000
CkEbdOPj,100,1, test, 4, 1, 6, 2, 1, 2, 1, 0.45, 0.35, left, 1, 0.35, 0.45, 0.55, 0.65, 0.5821078000008129, 0, 1.000000,42.000000,1.000000,6.000000,0.500000,1.000000
CkEbdOPj,100,1, test, 4, 1, 7, 3, 2, 2, 3, 0.55, 0.45, right, 2, 0.35, 0.45, 0.55, 0.65, 1.1194099000422284, 1, 2.000000,43.000000,1.000000,6.000000,0.500000,1.000000
CkEbdOPj,100,1, test, 4, 1, 8, 3, 4, 3, 4, 0.55, 0.65, left, 1, 0.35, 0.45, 0.55, 0.65, 1.4644945000181906, 0, 2.000000,43.000000,1.000000,6.000000,0.500000,1.000000
CkEbdOPj,100,1, test, 4, 1, 9, 1, 2, 2, 1, 0.35, 0.45, right, 2, 0.35, 0.45, 0.55, 0.65, 1.1214068999979645, 1, 3.000000,44.000000,1.000000,6.000000,0.500000,1.000000
CkEbdOPj,100,1, test, 4, 1, 10, 4, 2, 2, 4, 0.65, 0.45, right, 2, 0.35, 0.45, 0.55, 0.65, 1.4857694000238553, 1, 4.000000,45.000000,1.000000,6.000000,0.500000,1.000000
CkEbdOPj,100,1, test, 4, 1, 11, 4, 1, 1, 4, 0.65, 0.35, right, 2, 0.35, 0.45, 0.55, 0.65, 0.6828276999876834, 1, 5.000000,46.000000,1.000000,6.000000,0.500000,1.000000
CkEbdOPj,100,1, test, 4, 1, 12, 3, 4, 4, 3, 0.55, 0.65, right, 2, 0.35, 0.45, 0.55, 0.65, 1.7898454000242054, 1, 6.000000,47.000000,1.000000,6.000000,0.500000,1.000000
CkEbdOPj,100,1, test, 4, 1, 13, 3, 4, 3, 4, 0.55, 0.65, left, 1, 0.35, 0.45, 0.55, 0.65, 1.9141215999843553, 1, 7.000000,48.000000,1.000000,6.000000,0.500000,1.000000
CkEbdOPj,100,1, test, 4, 1, 14, 3, 4, 4, 3, 0.55, 0.65, right, 2, 0.35, 0.45, 0.55, 0.65, 0.9829640000243671, 1, 8.000000,49.000000,1.000000,6.000000,0.500000,1.000000
CkEbdOPj,100,1, test, 4, 1, 15, 2, 4, 4, 2, 0.45, 0.65, right, 2, 0.35, 0.45, 0.55, 0.65, 1.0628166999667883, 0, 8.000000,49.000000,1.000000,6.000000,0.500000,1.000000
CkEbdOPj,100,1, test, 4, 1, 16, 3, 4, 3, 4, 0.55, 0.65, left, 1, 0.35, 0.45, 0.55, 0.65, 0.9221264000516385, 0, 8.000000,49.000000,1.000000,6.000000,0.500000,1.000000
CkEbdOPj,100,1, test, 4, 1, 17, 1, 2, 1, 2, 0.35, 0.45, left, 1, 0.35, 0.45, 0.55, 0.65, 1.273670599970501, 1, 9.000000,50.000000,1.000000,6.000000,0.500000,1.000000
CkEbdOPj,100,1, test, 4, 1, 18, 4, 2, 2, 4, 0.65, 0.45, right, 2, 0.35, 0.45, 0.55, 0.65, 0.9106339999707416, 0, 9.000000,50.000000,1.000000,6.000000,0.500000,1.000000
CkEbdOPj,100,1, test, 4, 1, 19, 1, 2, 1, 2, 0.35, 0.45, left, 1, 0.35, 0.45, 0.55, 0.65, 1.0073342999676242, 0, 9.000000,50.000000,1.000000,6.000000,0.500000,1.000000
CkEbdOPj,100,1, test, 4, 1, 20, 1, 4, 4, 1, 0.35, 0.65, right, 2, 0.35, 0.45, 0.55, 0.65, 1.4558477000100538, 0, 9.000000,50.000000,1.000000,6.000000,0.500000,1.000000
CkEbdOPj,100,1, test, 4, 1, 21, 1, 3, 1, 3, 0.35, 0.55, left, 1, 0.35, 0.45, 0.55, 0.65, 1.5870971000404097, 0, 9.000000,50.000000,1.000000,6.000000,0.500000,1.000000
CkEbdOPj,100,1, test, 4, 1, 22, 3, 2, 3, 2, 0.55, 0.45, left, 1, 0.35, 0.45, 0.55, 0.65, 0.9804658999782987, 0, 9.000000,50.000000,1.000000,6.000000,0.500000,1.000000
CkEbdOPj,100,1, test, 4, 1, 23, 2, 4, 4, 2, 0.45, 0.65, right, 2, 0.35, 0.45, 0.55, 0.65, 0.842222600011155, 0, 9.000000,50.000000,1.000000,6.000000,0.500000,1.000000
CkEbdOPj,100,1, test, 4, 1, 24, 1, 3, 3, 1, 0.35, 0.55, right, 2, 0.35, 0.45, 0.55, 0.65, 1.1928809999953955, 0, 9.000000,50.000000,1.000000,6.000000,0.500000,1.000000
CkEbdOPj,100,1, test, 4, 1, 25, 3, 1, 3, 1, 0.55, 0.35, left, 1, 0.35, 0.45, 0.55, 0.65, 0.7818372999900021, 0, 9.000000,50.000000,1.000000,6.000000,0.500000,1.000000
CkEbdOPj,100,1, test, 5, 7, 1, 4, 3, 3, 4, 0.65, 0.55, right, 2, 0.35, 0.45, 0.55, 0.65, 0.25949109997600317, 1, 1.000000,51.000000,1.000000,6.000000,0.500000,1.000000
CkEbdOPj,100,1, test, 5, 7, 2, 1, 3, 1, 3, 0.35, 0.55, left, 1, 0.35, 0.45, 0.55, 0.65, 0.999006099998951, 1, 2.000000,52.000000,1.000000,6.000000,0.500000,1.000000
CkEbdOPj,100,1, test, 5, 7, 3, 1, 4, 4, 1, 0.35, 0.65, right, 2, 0.35, 0.45, 0.55, 0.65, 0.9382889000116847, 0, 2.000000,52.000000,1.000000,6.000000,0.500000,1.000000
CkEbdOPj,100,1, test, 5, 7, 4, 4, 3, 4, 3, 0.65, 0.55, left, 1, 0.35, 0.45, 0.55, 0.65, 1.350342899968382, 0, 2.000000,52.000000,1.000000,6.000000,0.500000,1.000000
CkEbdOPj,100,1, test, 5, 7, 5, 4, 1, 1, 4, 0.65, 0.35, right, 2, 0.35, 0.45, 0.55, 0.65, 1.3364783999859355, 0, 2.000000,52.000000,1.000000,6.000000,0.500000,1.000000
CkEbdOPj,100,1, test, 5, 7, 6, 2, 3, 3, 2, 0.45, 0.55, right, 2, 0.35, 0.45, 0.55, 0.65, 0.9422989999875426, 1, 3.000000,53.000000,1.000000,6.000000,0.500000,1.000000
CkEbdOPj,100,1, test, 5, 7, 7, 2, 4, 4, 2, 0.45, 0.65, right, 2, 0.35, 0.45, 0.55, 0.65, 0.6905469000339508, 0, 3.000000,53.000000,1.000000,6.000000,0.500000,1.000000
CkEbdOPj,100,1, test, 5, 7, 8, 4, 1, 4, 1, 0.65, 0.35, left, 1, 0.35, 0.45, 0.55, 0.65, 0.998867699992843, 1, 4.000000,54.000000,1.000000,6.000000,0.500000,1.000000
CkEbdOPj,100,1, test, 5, 7, 9, 3, 1, 1, 3, 0.55, 0.35, right, 2, 0.35, 0.45, 0.55, 0.65, 0.8255127999582328, 0, 4.000000,54.000000,1.000000,6.000000,0.500000,1.000000
CkEbdOPj,100,1, test, 5, 7, 10, 3, 2, 3, 2, 0.55, 0.45, left, 1, 0.35, 0.45, 0.55, 0.65, 0.3293682999792509, 0, 4.000000,54.000000,1.000000,6.000000,0.500000,1.000000
CkEbdOPj,100,1, test, 5, 7, 11, 2, 1, 2, 1, 0.45, 0.35, left, 1, 0.35, 0.45, 0.55, 0.65, 1.0766261999960989, 0, 4.000000,54.000000,1.000000,6.000000,0.500000,1.000000
CkEbdOPj,100,1, test, 5, 7, 12, 3, 4, 4, 3, 0.55, 0.65, right, 2, 0.35, 0.45, 0.55, 0.65, 1.0169332000077702, 1, 5.000000,55.000000,1.000000,6.000000,0.500000,1.000000
CkEbdOPj,100,1, test, 5, 7, 13, 1, 4, 4, 1, 0.35, 0.65, right, 2, 0.35, 0.45, 0.55, 0.65, 1.4328648999799043, 0, 5.000000,55.000000,1.000000,6.000000,0.500000,1.000000
CkEbdOPj,100,1, test, 5, 7, 14, 2, 3, 2, 3, 0.45, 0.55, left, 1, 0.35, 0.45, 0.55, 0.65, 1.0977159999893047, 0, 5.000000,55.000000,1.000000,6.000000,0.500000,1.000000
CkEbdOPj,100,1, test, 5, 7, 15, 4, 1, 4, 1, 0.65, 0.35, left, 1, 0.35, 0.45, 0.55, 0.65, 1.1383391999988817, 1, 6.000000,56.000000,1.000000,6.000000,0.500000,1.000000
CkEbdOPj,100,1, test, 5, 7, 16, 2, 4, 4, 2, 0.45, 0.65, right, 2, 0.35, 0.45, 0.55, 0.65, 1.2488179999636486, 0, 6.000000,56.000000,1.000000,6.000000,0.500000,1.000000
CkEbdOPj,100,1, test, 5, 7, 17, 1, 2, 1, 2, 0.35, 0.45, left, 1, 0.35, 0.45, 0.55, 0.65, 0.8350084000267088, 1, 7.000000,57.000000,1.000000,6.000000,0.500000,1.000000
CkEbdOPj,100,1, test, 5, 7, 18, 4, 3, 4, 3, 0.65, 0.55, left, 1, 0.35, 0.45, 0.55, 0.65, 1.426779700035695, 0, 7.000000,57.000000,1.000000,6.000000,0.500000,1.000000
CkEbdOPj,100,1, test, 5, 7, 19, 2, 1, 1, 2, 0.45, 0.35, right, 2, 0.35, 0.45, 0.55, 0.65, 1.191193500009831, 0, 7.000000,57.000000,1.000000,6.000000,0.500000,1.000000
CkEbdOPj,100,1, test, 5, 7, 20, 3, 4, 3, 4, 0.55, 0.65, left, 1, 0.35, 0.45, 0.55, 0.65, 2.0281004999997094, 1, 8.000000,58.000000,1.000000,6.000000,0.500000,1.000000
CkEbdOPj,100,1, test, 5, 7, 21, 4, 2, 2, 4, 0.65, 0.45, right, 2, 0.35, 0.45, 0.55, 0.65, 1.9846843999694102, 1, 9.000000,59.000000,1.000000,6.000000,0.500000,1.000000
CkEbdOPj,100,1, test, 5, 7, 22, 3, 2, 3, 2, 0.55, 0.45, left, 1, 0.35, 0.45, 0.55, 0.65, 1.4566620999830775, 1, 10.000000,60.000000,1.000000,6.000000,0.500000,1.000000
CkEbdOPj,100,1, test, 5, 7, 23, 4, 1, 4, 1, 0.65, 0.35, left, 1, 0.35, 0.45, 0.55, 0.65, 1.423261400021147, 0, 10.000000,60.000000,1.000000,6.000000,0.500000,1.000000
CkEbdOPj,100,1, test, 5, 7, 24, 3, 4, 3, 4, 0.55, 0.65, left, 1, 0.35, 0.45, 0.55, 0.65, 1.6204221000079997, 1, 11.000000,61.000000,1.000000,6.000000,0.500000,1.000000
CkEbdOPj,100,1, test, 5, 7, 25, 2, 1, 2, 1, 0.45, 0.35, left, 1, 0.35, 0.45, 0.55, 0.65, 1.0208721000235528, 1, 12.000000,62.000000,1.000000,6.000000,0.500000,1.000000
CkEbdOPj,100,1, test, 6, 1, 1, 3, 4, 4, 3, 0.55, 0.65, right, 2, 0.35, 0.45, 0.55, 0.65, 0.32828700001118705, 0, 0.000000,62.000000,1.000000,6.000000,0.500000,1.000000
CkEbdOPj,100,1, test, 6, 1, 2, 3, 2, 3, 2, 0.55, 0.45, left, 1, 0.35, 0.45, 0.55, 0.65, 1.404427899979055, 1, 1.000000,63.000000,1.000000,6.000000,0.500000,1.000000
CkEbdOPj,100,1, test, 6, 1, 3, 1, 2, 1, 2, 0.35, 0.45, left, 1, 0.35, 0.45, 0.55, 0.65, 1.4260992999770679, 0, 1.000000,63.000000,1.000000,6.000000,0.500000,1.000000
CkEbdOPj,100,1, test, 6, 1, 4, 1, 4, 4, 1, 0.35, 0.65, right, 2, 0.35, 0.45, 0.55, 0.65, 1.6172580000129528, 0, 1.000000,63.000000,1.000000,6.000000,0.500000,1.000000
CkEbdOPj,100,1, test, 6, 1, 5, 4, 2, 4, 2, 0.65, 0.45, left, 1, 0.35, 0.45, 0.55, 0.65, 1.3733454999746755, 1, 2.000000,64.000000,1.000000,6.000000,0.500000,1.000000
CkEbdOPj,100,1, test, 6, 1, 6, 2, 3, 2, 3, 0.45, 0.55, left, 1, 0.35, 0.45, 0.55, 0.65, 1.243010200036224, 0, 2.000000,64.000000,1.000000,6.000000,0.500000,1.000000
CkEbdOPj,100,1, test, 6, 1, 7, 1, 2, 2, 1, 0.35, 0.45, right, 2, 0.35, 0.45, 0.55, 0.65, 2.095450400025584, 1, 3.000000,65.000000,1.000000,6.000000,0.500000,1.000000
CkEbdOPj,100,1, test, 6, 1, 8, 4, 2, 2, 4, 0.65, 0.45, right, 2, 0.35, 0.45, 0.55, 0.65, 1.0037490000249818, 1, 4.000000,66.000000,1.000000,6.000000,0.500000,1.000000
CkEbdOPj,100,1, test, 6, 1, 9, 4, 2, 2, 4, 0.65, 0.45, right, 2, 0.35, 0.45, 0.55, 0.65, 0.6409543000045232, 1, 5.000000,67.000000,1.000000,6.000000,0.500000,1.000000
CkEbdOPj,100,1, test, 6, 1, 10, 1, 3, 3, 1, 0.35, 0.55, right, 2, 0.35, 0.45, 0.55, 0.65, 0.8724628000054508, 0, 5.000000,67.000000,1.000000,6.000000,0.500000,1.000000
CkEbdOPj,100,1, test, 6, 1, 11, 1, 2, 1, 2, 0.35, 0.45, left, 1, 0.35, 0.45, 0.55, 0.65, 2.2136734999949113, 0, 5.000000,67.000000,1.000000,6.000000,0.500000,1.000000
CkEbdOPj,100,1, test, 6, 1, 12, 3, 2, 2, 3, 0.55, 0.45, right, 2, 0.35, 0.45, 0.55, 0.65, 1.3785410999553278, 1, 6.000000,68.000000,1.000000,6.000000,0.500000,1.000000
CkEbdOPj,100,1, test, 6, 1, 13, 4, 2, 4, 2, 0.65, 0.45, left, 1, 0.35, 0.45, 0.55, 0.65, 2.144299099978525, 1, 7.000000,69.000000,1.000000,6.000000,0.500000,1.000000
CkEbdOPj,100,1, test, 6, 1, 14, 2, 3, 3, 2, 0.45, 0.55, right, 2, 0.35, 0.45, 0.55, 0.65, 1.9240460000000894, 1, 8.000000,70.000000,1.000000,6.000000,0.500000,1.000000
CkEbdOPj,100,1, test, 6, 1, 15, 2, 3, 3, 2, 0.45, 0.55, right, 2, 0.35, 0.45, 0.55, 0.65, 0.646364199987147, 1, 9.000000,71.000000,1.000000,6.000000,0.500000,1.000000
CkEbdOPj,100,1, test, 6, 1, 16, 4, 3, 3, 4, 0.65, 0.55, right, 2, 0.35, 0.45, 0.55, 0.65, 1.4061827000114135, 1, 10.000000,72.000000,1.000000,6.000000,0.500000,1.000000
CkEbdOPj,100,1, test, 6, 1, 17, 2, 1, 2, 1, 0.45, 0.35, left, 1, 0.35, 0.45, 0.55, 0.65, 1.5901032000547275, 0, 10.000000,72.000000,1.000000,6.000000,0.500000,1.000000
CkEbdOPj,100,1, test, 6, 1, 18, 1, 2, 1, 2, 0.35, 0.45, left, 1, 0.35, 0.45, 0.55, 0.65, 1.6915889999945648, 1, 11.000000,73.000000,1.000000,6.000000,0.500000,1.000000
CkEbdOPj,100,1, test, 6, 1, 19, 3, 2, 3, 2, 0.55, 0.45, left, 1, 0.35, 0.45, 0.55, 0.65, 1.0926935000461526, 0, 11.000000,73.000000,1.000000,6.000000,0.500000,1.000000
CkEbdOPj,100,1, test, 6, 1, 20, 3, 4, 4, 3, 0.55, 0.65, right, 2, 0.35, 0.45, 0.55, 0.65, 1.8624180000042543, 0, 11.000000,73.000000,1.000000,6.000000,0.500000,1.000000
CkEbdOPj,100,1, test, 6, 1, 21, 2, 3, 3, 2, 0.45, 0.55, right, 2, 0.35, 0.45, 0.55, 0.65, 1.6441224999725819, 0, 11.000000,73.000000,1.000000,6.000000,0.500000,1.000000
CkEbdOPj,100,1, test, 6, 1, 22, 3, 2, 3, 2, 0.55, 0.45, left, 1, 0.35, 0.45, 0.55, 0.65, 0.5554540000157431, 0, 11.000000,73.000000,1.000000,6.000000,0.500000,1.000000
CkEbdOPj,100,1, test, 6, 1, 23, 1, 3, 3, 1, 0.35, 0.55, right, 2, 0.35, 0.45, 0.55, 0.65, 1.1415455000242218, 0, 11.000000,73.000000,1.000000,6.000000,0.500000,1.000000
CkEbdOPj,100,1, test, 6, 1, 24, 3, 1, 3, 1, 0.55, 0.35, left, 1, 0.35, 0.45, 0.55, 0.65, 0.5341901000356302, 1, 12.000000,74.000000,1.000000,6.000000,0.500000,1.000000
CkEbdOPj,100,1, test, 6, 1, 25, 2, 1, 2, 1, 0.45, 0.35, left, 1, 0.35, 0.45, 0.55, 0.65, 1.1579281999729574, 0, 12.000000,74.000000,1.000000,6.000000,0.500000,1.000000
CkEbdOPj,100,1, test, 7, 7, 1, 4, 1, 1, 4, 0.65, 0.35, right, 2, 0.35, 0.45, 0.55, 0.65, 0.3652492000255734, 1, 1.000000,75.000000,1.000000,6.000000,0.500000,1.000000
CkEbdOPj,100,1, test, 7, 7, 2, 2, 1, 1, 2, 0.45, 0.35, right, 2, 0.35, 0.45, 0.55, 0.65, 1.7078623000415973, 0, 1.000000,75.000000,1.000000,6.000000,0.500000,1.000000
CkEbdOPj,100,1, test, 7, 7, 3, 1, 3, 1, 3, 0.35, 0.55, left, 1, 0.35, 0.45, 0.55, 0.65, 1.4244378000148572, 0, 1.000000,75.000000,1.000000,6.000000,0.500000,1.000000
CkEbdOPj,100,1, test, 7, 7, 4, 2, 4, 4, 2, 0.45, 0.65, right, 2, 0.35, 0.45, 0.55, 0.65, 1.4786802000016905, 0, 1.000000,75.000000,1.000000,6.000000,0.500000,1.000000
CkEbdOPj,100,1, test, 7, 7, 5, 2, 1, 2, 1, 0.45, 0.35, left, 1, 0.35, 0.45, 0.55, 0.65, 1.4450319999596104, 0, 1.000000,75.000000,1.000000,6.000000,0.500000,1.000000
CkEbdOPj,100,1, test, 7, 7, 6, 1, 4, 4, 1, 0.35, 0.65, right, 2, 0.35, 0.45, 0.55, 0.65, 1.6009421999915503, 1, 2.000000,76.000000,1.000000,6.000000,0.500000,1.000000
CkEbdOPj,100,1, test, 7, 7, 7, 4, 1, 1, 4, 0.65, 0.35, right, 2, 0.35, 0.45, 0.55, 0.65, 1.3606391999637708, 1, 3.000000,77.000000,1.000000,6.000000,0.500000,1.000000
CkEbdOPj,100,1, test, 7, 7, 8, 1, 2, 1, 2, 0.35, 0.45, left, 1, 0.35, 0.45, 0.55, 0.65, 1.2203785000019707, 0, 3.000000,77.000000,1.000000,6.000000,0.500000,1.000000
CkEbdOPj,100,1, test, 7, 7, 9, 2, 4, 4, 2, 0.45, 0.65, right, 2, 0.35, 0.45, 0.55, 0.65, 2.131302500027232, 1, 4.000000,78.000000,1.000000,6.000000,0.500000,1.000000
CkEbdOPj,100,1, test, 7, 7, 10, 1, 4, 4, 1, 0.35, 0.65, right, 2, 0.35, 0.45, 0.55, 0.65, 1.4857592999469489, 0, 4.000000,78.000000,1.000000,6.000000,0.500000,1.000000
CkEbdOPj,100,1, test, 7, 7, 11, 2, 4, 4, 2, 0.45, 0.65, right, 2, 0.35, 0.45, 0.55, 0.65, 1.2310494999983348, 0, 4.000000,78.000000,1.000000,6.000000,0.500000,1.000000
CkEbdOPj,100,1, test, 7, 7, 12, 3, 1, 1, 3, 0.55, 0.35, right, 2, 0.35, 0.45, 0.55, 0.65, 1.1553874999517575, 0, 4.000000,78.000000,1.000000,6.000000,0.500000,1.000000
CkEbdOPj,100,1, test, 7, 7, 13, 3, 2, 3, 2, 0.55, 0.45, left, 1, 0.35, 0.45, 0.55, 0.65, 0.8289452999597415, 1, 5.000000,79.000000,1.000000,6.000000,0.500000,1.000000
CkEbdOPj,100,1, test, 7, 7, 14, 1, 3, 1, 3, 0.35, 0.55, left, 1, 0.35, 0.45, 0.55, 0.65, 0.9294991999631748, 0, 5.000000,79.000000,1.000000,6.000000,0.500000,1.000000
CkEbdOPj,100,1, test, 7, 7, 15, 1, 2, 2, 1, 0.35, 0.45, right, 2, 0.35, 0.45, 0.55, 0.65, 1.6686784999910742, 0, 5.000000,79.000000,1.000000,6.000000,0.500000,1.000000
CkEbdOPj,100,1, test, 7, 7, 16, 2, 3, 3, 2, 0.45, 0.55, right, 2, 0.35, 0.45, 0.55, 0.65, 0.9064089999883436, 1, 6.000000,80.000000,1.000000,6.000000,0.500000,1.000000
CkEbdOPj,100,1, test, 7, 7, 17, 1, 2, 1, 2, 0.35, 0.45, left, 1, 0.35, 0.45, 0.55, 0.65, 0.8674886000226252, 1, 7.000000,81.000000,1.000000,6.000000,0.500000,1.000000
CkEbdOPj,100,1, test, 7, 7, 18, 2, 3, 3, 2, 0.45, 0.55, right, 2, 0.35, 0.45, 0.55, 0.65, 1.46815939998487, 1, 8.000000,82.000000,1.000000,6.000000,0.500000,1.000000
CkEbdOPj,100,1, test, 7, 7, 19, 4, 1, 1, 4, 0.65, 0.35, right, 2, 0.35, 0.45, 0.55, 0.65, 0.9198639000533149, 1, 9.000000,83.000000,1.000000,6.000000,0.500000,1.000000
CkEbdOPj,100,1, test, 7, 7, 20, 3, 1, 3, 1, 0.55, 0.35, left, 1, 0.35, 0.45, 0.55, 0.65, 0.8823351999744773, 1, 10.000000,84.000000,1.000000,6.000000,0.500000,1.000000
CkEbdOPj,100,1, test, 7, 7, 21, 4, 1, 1, 4, 0.65, 0.35, right, 2, 0.35, 0.45, 0.55, 0.65, 0.9532456999877468, 0, 10.000000,84.000000,1.000000,6.000000,0.500000,1.000000
CkEbdOPj,100,1, test, 7, 7, 22, 2, 1, 1, 2, 0.45, 0.35, right, 2, 0.35, 0.45, 0.55, 0.65, 0.999456099991221, 1, 11.000000,85.000000,1.000000,6.000000,0.500000,1.000000
CkEbdOPj,100,1, test, 7, 7, 23, 3, 1, 3, 1, 0.55, 0.35, left, 1, 0.35, 0.45, 0.55, 0.65, 1.9478542999713682, 0, 11.000000,85.000000,1.000000,6.000000,0.500000,1.000000
CkEbdOPj,100,1, test, 7, 7, 24, 1, 3, 1, 3, 0.35, 0.55, left, 1, 0.35, 0.45, 0.55, 0.65, 1.4221352000022307, 0, 11.000000,85.000000,1.000000,6.000000,0.500000,1.000000
CkEbdOPj,100,1, test, 7, 7, 25, 1, 2, 1, 2, 0.35, 0.45, left, 1, 0.35, 0.45, 0.55, 0.65, 1.4658771000104025, 1, 12.000000,86.000000,1.000000,6.000000,0.500000,1.000000
CkEbdOPj,100,1, test, 8, 1, 1, 3, 1, 1, 3, 0.55, 0.35, right, 2, 0.35, 0.45, 0.55, 0.65, 0.6850965999765322, 1, 1.000000,87.000000,1.000000,6.000000,0.500000,1.000000
CkEbdOPj,100,1, test, 8, 1, 2, 1, 4, 1, 4, 0.35, 0.65, left, 1, 0.35, 0.45, 0.55, 0.65, 0.870473499991931, 0, 1.000000,87.000000,1.000000,6.000000,0.500000,1.000000
CkEbdOPj,100,1, test, 8, 1, 3, 1, 3, 3, 1, 0.35, 0.55, right, 2, 0.35, 0.45, 0.55, 0.65, 1.2092006000457332, 1, 2.000000,88.000000,1.000000,6.000000,0.500000,1.000000
CkEbdOPj,100,1, test, 8, 1, 4, 4, 1, 1, 4, 0.65, 0.35, right, 2, 0.35, 0.45, 0.55, 0.65, 0.9863462999928743, 1, 3.000000,89.000000,1.000000,6.000000,0.500000,1.000000
CkEbdOPj,100,1, test, 8, 1, 5, 2, 4, 4, 2, 0.45, 0.65, right, 2, 0.35, 0.45, 0.55, 0.65, 1.182902800035663, 0, 3.000000,89.000000,1.000000,6.000000,0.500000,1.000000
CkEbdOPj,100,1, test, 8, 1, 6, 3, 2, 3, 2, 0.55, 0.45, left, 1, 0.35, 0.45, 0.55, 0.65, 1.3471460999571718, 1, 4.000000,90.000000,1.000000,6.000000,0.500000,1.000000
CkEbdOPj,100,1, test, 8, 1, 7, 1, 4, 4, 1, 0.35, 0.65, right, 2, 0.35, 0.45, 0.55, 0.65, 1.7669357999693602, 0, 4.000000,90.000000,1.000000,6.000000,0.500000,1.000000
CkEbdOPj,100,1, test, 8, 1, 8, 4, 2, 4, 2, 0.65, 0.45, left, 1, 0.35, 0.45, 0.55, 0.65, 0.9849928999901749, 0, 4.000000,90.000000,1.000000,6.000000,0.500000,1.000000
CkEbdOPj,100,1, test, 8, 1, 9, 2, 1, 1, 2, 0.45, 0.35, right, 2, 0.35, 0.45, 0.55, 0.65, 0.597644500026945, 1, 5.000000,91.000000,1.000000,6.000000,0.500000,1.000000
CkEbdOPj,100,1, test, 8, 1, 10, 1, 2, 2, 1, 0.35, 0.45, right, 2, 0.35, 0.45, 0.55, 0.65, 0.8427983999717981, 0, 5.000000,91.000000,1.000000,6.000000,0.500000,1.000000
CkEbdOPj,100,1, test, 8, 1, 11, 4, 1, 4, 1, 0.65, 0.35, left, 1, 0.35, 0.45, 0.55, 0.65, 0.9249657999607734, 1, 6.000000,92.000000,1.000000,6.000000,0.500000,1.000000
CkEbdOPj,100,1, test, 8, 1, 12, 4, 1, 1, 4, 0.65, 0.35, right, 2, 0.35, 0.45, 0.55, 0.65, 1.2891682999907061, 1, 7.000000,93.000000,1.000000,6.000000,0.500000,1.000000
CkEbdOPj,100,1, test, 8, 1, 13, 3, 4, 3, 4, 0.55, 0.65, left, 1, 0.35, 0.45, 0.55, 0.65, 1.0271172999637201, 0, 7.000000,93.000000,1.000000,6.000000,0.500000,1.000000
CkEbdOPj,100,1, test, 8, 1, 14, 3, 4, 4, 3, 0.55, 0.65, right, 2, 0.35, 0.45, 0.55, 0.65, 0.6801888000336476, 0, 7.000000,93.000000,1.000000,6.000000,0.500000,1.000000
CkEbdOPj,100,1, test, 8, 1, 15, 2, 3, 2, 3, 0.45, 0.55, left, 1, 0.35, 0.45, 0.55, 0.65, 1.0326375999720767, 1, 8.000000,94.000000,1.000000,6.000000,0.500000,1.000000
CkEbdOPj,100,1, test, 8, 1, 16, 2, 3, 3, 2, 0.45, 0.55, right, 2, 0.35, 0.45, 0.55, 0.65, 1.2153070000349544, 0, 8.000000,94.000000,1.000000,6.000000,0.500000,1.000000
CkEbdOPj,100,1, test, 8, 1, 17, 2, 3, 3, 2, 0.45, 0.55, right, 2, 0.35, 0.45, 0.55, 0.65, 0.7550058999913745, 0, 8.000000,94.000000,1.000000,6.000000,0.500000,1.000000
CkEbdOPj,100,1, test, 8, 1, 18, 4, 2, 2, 4, 0.65, 0.45, right, 2, 0.35, 0.45, 0.55, 0.65, 1.147330800013151, 1, 9.000000,95.000000,1.000000,6.000000,0.500000,1.000000
CkEbdOPj,100,1, test, 8, 1, 19, 1, 4, 1, 4, 0.35, 0.65, left, 1, 0.35, 0.45, 0.55, 0.65, 1.0763381000142545, 0, 9.000000,95.000000,1.000000,6.000000,0.500000,1.000000
CkEbdOPj,100,1, test, 8, 1, 20, 3, 1, 1, 3, 0.55, 0.35, right, 2, 0.35, 0.45, 0.55, 0.65, 1.6311806999729015, 0, 9.000000,95.000000,1.000000,6.000000,0.500000,1.000000
CkEbdOPj,100,1, test, 8, 1, 21, 1, 4, 1, 4, 0.35, 0.65, left, 1, 0.35, 0.45, 0.55, 0.65, 1.2739854999817908, 0, 9.000000,95.000000,1.000000,6.000000,0.500000,1.000000
CkEbdOPj,100,1, test, 8, 1, 22, 2, 1, 1, 2, 0.45, 0.35, right, 2, 0.35, 0.45, 0.55, 0.65, 1.7207849000114948, 0, 9.000000,95.000000,1.000000,6.000000,0.500000,1.000000
CkEbdOPj,100,1, test, 8, 1, 23, 4, 3, 4, 3, 0.65, 0.55, left, 1, 0.35, 0.45, 0.55, 0.65, 1.4362767999991775, 1, 10.000000,96.000000,1.000000,6.000000,0.500000,1.000000
CkEbdOPj,100,1, test, 8, 1, 24, 4, 2, 4, 2, 0.65, 0.45, left, 1, 0.35, 0.45, 0.55, 0.65, 0.9958852999843657, 1, 11.000000,97.000000,1.000000,6.000000,0.500000,1.000000
CkEbdOPj,100,1, test, 8, 1, 25, 1, 3, 1, 3, 0.35, 0.55, left, 1, 0.35, 0.45, 0.55, 0.65, 1.312061300035566, 0, 11.000000,97.000000,1.000000,6.000000,0.500000,1.000000
