ShaharID, group, counterbalance, block_type, block, delay_condition, trial, chosen, unchosen, offer_left_image, offer_right_image, exp_value_chosen, exp_value_unchosen, choice_location, choice_key, exp_value1, exp_value2, exp_value3, exp_value4, RT, reward, coins_per_block, coins_per_task,ITI_duration,rt_deadline,choice_feedback_duration,outcome_duration
BFyx6I55,200,0, practice, 1, 1, 1, 4, 3, 3, 4, 0.65, 0.55, right, 2, 0.35, 0.45, 0.55, 0.65, 3.9404916999992565, 0, 0.000000,0.000000,1.000000,6.000000,0.500000,1.000000
BFyx6I55,200,0, practice, 1, 1, 2, 1, 4, 1, 4, 0.35, 0.65, left, 1, 0.35, 0.45, 0.55, 0.65, 1.4324496000008367, 1, 1.000000,1.000000,1.000000,6.000000,0.500000,1.000000
BFyx6I55,200,0, practice, 1, 1, 3, 3, 2, 2, 3, 0.55, 0.45, right, 2, 0.35, 0.45, 0.55, 0.65, 1.9559298999993189, 1, 2.000000,2.000000,1.000000,6.000000,0.500000,1.000000
BFyx6I55,200,0, practice, 1, 1, 4, 2, 4, 2, 4, 0.45, 0.65, left, 1, 0.35, 0.45, 0.55, 0.65, 0.9096828000001551, 0, 2.000000,2.000000,1.000000,6.000000,0.500000,1.000000
BFyx6I55,200,0, practice, 1, 1, 5, 3, 4, 4, 3, 0.55, 0.65, right, 2, 0.35, 0.45, 0.55, 0.65, 0.9141082000023744, 0, 2.000000,2.000000,1.000000,6.000000,0.500000,1.000000
BFyx6I55,200,0, test, 1, 1, 1, 3, 4, 4, 3, 0.55, 0.65, right, 2, 0.35, 0.45, 0.55, 0.65, 0.6887720999984595, 1, 1.000000,3.000000,1.000000,6.000000,0.500000,1.000000
BFyx6I55,200,0, test, 1, 1, 2, 3, 2, 3, 2, 0.55, 0.45, left, 1, 0.35, 0.45, 0.55, 0.65, 0.4985949999972945, 1, 2.000000,4.000000,1.000000,6.000000,0.500000,1.000000
BFyx6I55,200,0, test, 1, 1, 3, 3, 2, 2, 3, 0.55, 0.45, right, 2, 0.35, 0.45, 0.55, 0.65, 0.43590880000192556, 0, 2.000000,4.000000,1.000000,6.000000,0.500000,1.000000
BFyx6I55,200,0, test, 1, 1, 4, 1, 3, 3, 1, 0.35, 0.55, right, 2, 0.35, 0.45, 0.55, 0.65, 1.3956815999990795, 1, 3.000000,5.000000,1.000000,6.000000,0.500000,1.000000
BFyx6I55,200,0, test, 1, 1, 5, 3, 2, 3, 2, 0.55, 0.45, left, 1, 0.35, 0.45, 0.55, 0.65, 1.18841170000087, 1, 4.000000,6.000000,1.000000,6.000000,0.500000,1.000000
BFyx6I55,200,0, test, 1, 1, 6, 3, 2, 2, 3, 0.55, 0.45, right, 2, 0.35, 0.45, 0.55, 0.65, 1.5295819000020856, 0, 4.000000,6.000000,1.000000,6.000000,0.500000,1.000000
BFyx6I55,200,0, test, 1, 1, 7, 1, 2, 1, 2, 0.35, 0.45, left, 1, 0.35, 0.45, 0.55, 0.65, 1.2240633000001253, 0, 4.000000,6.000000,1.000000,6.000000,0.500000,1.000000
BFyx6I55,200,0, test, 1, 1, 8, 2, 1, 2, 1, 0.45, 0.35, left, 1, 0.35, 0.45, 0.55, 0.65, 2.6311090999988664, 0, 4.000000,6.000000,1.000000,6.000000,0.500000,1.000000
BFyx6I55,200,0, test, 1, 1, 9, 3, 1, 1, 3, 0.55, 0.35, right, 2, 0.35, 0.45, 0.55, 0.65, 1.596296200001234, 0, 4.000000,6.000000,1.000000,6.000000,0.500000,1.000000
BFyx6I55,200,0, test, 1, 1, 10, 1, 3, 3, 1, 0.35, 0.55, right, 2, 0.35, 0.45, 0.55, 0.65, 1.1645798999998078, 0, 4.000000,6.000000,1.000000,6.000000,0.500000,1.000000
BFyx6I55,200,0, test, 1, 1, 11, 3, 2, 3, 2, 0.55, 0.45, left, 1, 0.35, 0.45, 0.55, 0.65, 1.986669100002473, 1, 5.000000,7.000000,1.000000,6.000000,0.500000,1.000000
BFyx6I55,200,0, test, 1, 1, 12, 1, 3, 3, 1, 0.35, 0.55, right, 2, 0.35, 0.45, 0.55, 0.65, 2.059575599996606, 0, 5.000000,7.000000,1.000000,6.000000,0.500000,1.000000
BFyx6I55,200,0, test, 1, 1, 13, 4, 3, 3, 4, 0.65, 0.55, right, 2, 0.35, 0.45, 0.55, 0.65, 2.8649972999992315, 1, 6.000000,8.000000,1.000000,6.000000,0.500000,1.000000
BFyx6I55,200,0, test, 1, 1, 14, 2, 4, 4, 2, 0.45, 0.65, right, 2, 0.35, 0.45, 0.55, 0.65, 1.4596471000004385, 0, 6.000000,8.000000,1.000000,6.000000,0.500000,1.000000
BFyx6I55,200,0, test, 1, 1, 15, 3, 2, 2, 3, 0.55, 0.45, right, 2, 0.35, 0.45, 0.55, 0.65, 2.510065400001622, 1, 7.000000,9.000000,1.000000,6.000000,0.500000,1.000000
BFyx6I55,200,0, test, 1, 1, 16, 1, 2, 2, 1, 0.35, 0.45, right, 2, 0.35, 0.45, 0.55, 0.65, 1.3269610999996075, 1, 8.000000,10.000000,1.000000,6.000000,0.500000,1.000000
BFyx6I55,200,0, test, 1, 1, 17, 3, 2, 2, 3, 0.55, 0.45, right, 2, 0.35, 0.45, 0.55, 0.65, 0.8243363000001409, 1, 9.000000,11.000000,1.000000,6.000000,0.500000,1.000000
BFyx6I55,200,0, test, 1, 1, 18, 1, 4, 4, 1, 0.35, 0.65, right, 2, 0.35, 0.45, 0.55, 0.65, 1.0067827999992005, 0, 9.000000,11.000000,1.000000,6.000000,0.500000,1.000000
BFyx6I55,200,0, test, 1, 1, 19, 3, 4, 4, 3, 0.55, 0.65, right, 2, 0.35, 0.45, 0.55, 0.65, 1.3711653000027582, 1, 10.000000,12.000000,1.000000,6.000000,0.500000,1.000000
BFyx6I55,200,0, test, 1, 1, 20, 1, 2, 2, 1, 0.35, 0.45, right, 2, 0.35, 0.45, 0.55, 0.65, 2.1510382000014943, 0, 10.000000,12.000000,1.000000,6.000000,0.500000,1.000000
BFyx6I55,200,0, test, 1, 1, 21, 2, 1, 2, 1, 0.45, 0.35, left, 1, 0.35, 0.45, 0.55, 0.65, 0.5317751000002318, 1, 11.000000,13.000000,1.000000,6.000000,0.500000,1.000000
BFyx6I55,200,0, test, 1, 1, 22, 3, 4, 4, 3, 0.55, 0.65, right, 2, 0.35, 0.45, 0.55, 0.65, 1.0608924000007391, 1, 12.000000,14.000000,1.000000,6.000000,0.500000,1.000000
BFyx6I55,200,0, test, 1, 1, 23, 2, 3, 2, 3, 0.45, 0.55, left, 1, 0.35, 0.45, 0.55, 0.65, 0.8592539999990549, 0, 12.000000,14.000000,1.000000,6.000000,0.500000,1.000000
BFyx6I55,200,0, test, 1, 1, 24, 3, 4, 4, 3, 0.55, 0.65, right, 2, 0.35, 0.45, 0.55, 0.65, 0.8023041000014928, 0, 12.000000,14.000000,1.000000,6.000000,0.500000,1.000000
BFyx6I55,200,0, test, 1, 1, 25, 1, 3, 3, 1, 0.35, 0.55, right, 2, 0.35, 0.45, 0.55, 0.65, 2.2017814999999246, 1, 13.000000,15.000000,1.000000,6.000000,0.500000,1.000000
BFyx6I55,200,0, test, 2, 7, 1, 4, 2, 2, 4, 0.65, 0.45, right, 2, 0.35, 0.45, 0.55, 0.65, 0.6816832000004069, 0, 0.000000,15.000000,1.000000,6.000000,0.500000,1.000000
BFyx6I55,200,0, test, 2, 7, 2, 4, 2, 4, 2, 0.65, 0.45, left, 1, 0.35, 0.45, 0.55, 0.65, 2.435627500002738, 1, 1.000000,16.000000,1.000000,6.000000,0.500000,1.000000
BFyx6I55,200,0, test, 2, 7, 3, 1, 2, 2, 1, 0.35, 0.45, right, 2, 0.35, 0.45, 0.55, 0.65, 1.2069426999987627, 0, 1.000000,16.000000,1.000000,6.000000,0.500000,1.000000
BFyx6I55,200,0, test, 2, 7, 4, 4, 3, 3, 4, 0.65, 0.55, right, 2, 0.35, 0.45, 0.55, 0.65, 1.371474000003218, 1, 2.000000,17.000000,1.000000,6.000000,0.500000,1.000000
BFyx6I55,200,0, test, 2, 7, 5, 4, 3, 3, 4, 0.65, 0.55, right, 2, 0.35, 0.45, 0.55, 0.65, 0.6734775000004447, 1, 3.000000,18.000000,1.000000,6.000000,0.500000,1.000000
BFyx6I55,200,0, test, 2, 7, 6, 4, 1, 1, 4, 0.65, 0.35, right, 2, 0.35, 0.45, 0.55, 0.65, 1.1108984000020428, 1, 4.000000,19.000000,1.000000,6.000000,0.500000,1.000000
BFyx6I55,200,0, test, 2, 7, 7, 4, 1, 1, 4, 0.65, 0.35, right, 2, 0.35, 0.45, 0.55, 0.65, 0.7353563999968173, 1, 5.000000,20.000000,1.000000,6.000000,0.500000,1.000000
BFyx6I55,200,0, test, 2, 7, 8, 4, 1, 1, 4, 0.65, 0.35, right, 2, 0.35, 0.45, 0.55, 0.65, 0.5024361000032513, 1, 6.000000,21.000000,1.000000,6.000000,0.500000,1.000000
BFyx6I55,200,0, test, 2, 7, 9, 4, 1, 1, 4, 0.65, 0.35, right, 2, 0.35, 0.45, 0.55, 0.65, 0.7587098000003607, 0, 6.000000,21.000000,1.000000,6.000000,0.500000,1.000000
BFyx6I55,200,0, test, 2, 7, 10, 1, 3, 1, 3, 0.35, 0.55, left, 1, 0.35, 0.45, 0.55, 0.65, 1.5374068000019179, 0, 6.000000,21.000000,1.000000,6.000000,0.500000,1.000000
BFyx6I55,200,0, test, 2, 7, 11, 4, 3, 4, 3, 0.65, 0.55, left, 1, 0.35, 0.45, 0.55, 0.65, 1.3247095000006084, 1, 7.000000,22.000000,1.000000,6.000000,0.500000,1.000000
BFyx6I55,200,0, test, 2, 7, 12, 1, 4, 4, 1, 0.35, 0.65, right, 2, 0.35, 0.45, 0.55, 0.65, 2.0092303000019456, 0, 7.000000,22.000000,1.000000,6.000000,0.500000,1.000000
BFyx6I55,200,0, test, 2, 7, 13, 3, 4, 4, 3, 0.55, 0.65, right, 2, 0.35, 0.45, 0.55, 0.65, 1.766779300000053, 1, 8.000000,23.000000,1.000000,6.000000,0.500000,1.000000
BFyx6I55,200,0, test, 2, 7, 14, 2, 1, 1, 2, 0.45, 0.35, right, 2, 0.35, 0.45, 0.55, 0.65, 2.200119099998119, 0, 8.000000,23.000000,1.000000,6.000000,0.500000,1.000000
BFyx6I55,200,0, test, 2, 7, 15, 4, 1, 4, 1, 0.65, 0.35, left, 1, 0.35, 0.45, 0.55, 0.65, 3.725143300001946, 1, 9.000000,24.000000,1.000000,6.000000,0.500000,1.000000
BFyx6I55,200,0, test, 2, 7, 16, 3, 2, 3, 2, 0.55, 0.45, left, 1, 0.35, 0.45, 0.55, 0.65, 1.7853976999977021, 1, 10.000000,25.000000,1.000000,6.000000,0.500000,1.000000
BFyx6I55,200,0, test, 2, 7, 17, 1, 3, 3, 1, 0.35, 0.55, right, 2, 0.35, 0.45, 0.55, 0.65, 1.146440699998493, 1, 11.000000,26.000000,1.000000,6.000000,0.500000,1.000000
BFyx6I55,200,0, test, 2, 7, 18, 4, 3, 4, 3, 0.65, 0.55, left, 1, 0.35, 0.45, 0.55, 0.65, 3.137427599998773, 1, 12.000000,27.000000,1.000000,6.000000,0.500000,1.000000
BFyx6I55,200,0, test, 2, 7, 19, 2, 1, 1, 2, 0.45, 0.35, right, 2, 0.35, 0.45, 0.55, 0.65, 1.4155428000012762, 1, 13.000000,28.000000,1.000000,6.000000,0.500000,1.000000
BFyx6I55,200,0, test, 2, 7, 20, 4, 1, 1, 4, 0.65, 0.35, right, 2, 0.35, 0.45, 0.55, 0.65, 0.9008608000003733, 0, 13.000000,28.000000,1.000000,6.000000,0.500000,1.000000
BFyx6I55,200,0, test, 2, 7, 21, 2, 3, 2, 3, 0.45, 0.55, left, 1, 0.35, 0.45, 0.55, 0.65, 1.0205925000009302, 1, 14.000000,29.000000,1.000000,6.000000,0.500000,1.000000
BFyx6I55,200,0, test, 2, 7, 22, 1, 2, 1, 2, 0.35, 0.45, left, 1, 0.35, 0.45, 0.55, 0.65, 1.5083560000020952, 0, 14.000000,29.000000,1.000000,6.000000,0.500000,1.000000
BFyx6I55,200,0, test, 2, 7, 23, 3, 2, 2, 3, 0.55, 0.45, right, 2, 0.35, 0.45, 0.55, 0.65, 1.7729216000007, 0, 14.000000,29.000000,1.000000,6.000000,0.500000,1.000000
BFyx6I55,200,0, test, 2, 7, 24, 2, 1, 2, 1, 0.45, 0.35, left, 1, 0.35, 0.45, 0.55, 0.65, 1.6789131999976235, 1, 15.000000,30.000000,1.000000,6.000000,0.500000,1.000000
BFyx6I55,200,0, test, 2, 7, 25, 2, 1, 2, 1, 0.45, 0.35, left, 1, 0.35, 0.45, 0.55, 0.65, 0.7004853999969782, 0, 15.000000,30.000000,1.000000,6.000000,0.500000,1.000000
BFyx6I55,200,0, test, 3, 1, 1, 1, 3, 3, 1, 0.35, 0.55, right, 2, 0.35, 0.45, 0.55, 0.65, 0.5825742999986687, 1, 1.000000,31.000000,1.000000,6.000000,0.500000,1.000000
BFyx6I55,200,0, test, 3, 1, 2, 1, 2, 1, 2, 0.35, 0.45, left, 1, 0.35, 0.45, 0.55, 0.65, 0.7397554000017408, 0, 1.000000,31.000000,1.000000,6.000000,0.500000,1.000000
BFyx6I55,200,0, test, 3, 1, 3, 4, 3, 4, 3, 0.65, 0.55, left, 1, 0.35, 0.45, 0.55, 0.65, 0.772111500002211, 1, 2.000000,32.000000,1.000000,6.000000,0.500000,1.000000
BFyx6I55,200,0, test, 3, 1, 4, 2, 3, 3, 2, 0.45, 0.55, right, 2, 0.35, 0.45, 0.55, 0.65, 0.9170403000025544, 1, 3.000000,33.000000,1.000000,6.000000,0.500000,1.000000
BFyx6I55,200,0, test, 3, 1, 5, 4, 3, 3, 4, 0.65, 0.55, right, 2, 0.35, 0.45, 0.55, 0.65, 1.0904905999996117, 1, 4.000000,34.000000,1.000000,6.000000,0.500000,1.000000
BFyx6I55,200,0, test, 3, 1, 6, 2, 1, 2, 1, 0.45, 0.35, left, 1, 0.35, 0.45, 0.55, 0.65, 1.3988374000000476, 0, 4.000000,34.000000,1.000000,6.000000,0.500000,1.000000
BFyx6I55,200,0, test, 3, 1, 7, 2, 3, 3, 2, 0.45, 0.55, right, 2, 0.35, 0.45, 0.55, 0.65, 0.8871316000004299, 0, 4.000000,34.000000,1.000000,6.000000,0.500000,1.000000
BFyx6I55,200,0, test, 3, 1, 8, 1, 3, 3, 1, 0.35, 0.55, right, 2, 0.35, 0.45, 0.55, 0.65, 1.1810973999999987, 1, 5.000000,35.000000,1.000000,6.000000,0.500000,1.000000
BFyx6I55,200,0, test, 3, 1, 9, 1, 3, 1, 3, 0.35, 0.55, left, 1, 0.35, 0.45, 0.55, 0.65, 1.5191678999981377, 1, 6.000000,36.000000,1.000000,6.000000,0.500000,1.000000
BFyx6I55,200,0, test, 3, 1, 10, 4, 2, 4, 2, 0.65, 0.45, left, 1, 0.35, 0.45, 0.55, 0.65, 3.1494951999993646, 1, 7.000000,37.000000,1.000000,6.000000,0.500000,1.000000
BFyx6I55,200,0, test, 3, 1, 11, 2, 1, 1, 2, 0.45, 0.35, right, 2, 0.35, 0.45, 0.55, 0.65, 0.7761271999988821, 1, 8.000000,38.000000,1.000000,6.000000,0.500000,1.000000
BFyx6I55,200,0, test, 3, 1, 12, 2, 1, 1, 2, 0.45, 0.35, right, 2, 0.35, 0.45, 0.55, 0.65, 0.6232387000018207, 0, 8.000000,38.000000,1.000000,6.000000,0.500000,1.000000
BFyx6I55,200,0, test, 3, 1, 13, 4, 3, 4, 3, 0.65, 0.55, left, 1, 0.35, 0.45, 0.55, 0.65, 0.6547862000006717, 1, 9.000000,39.000000,1.000000,6.000000,0.500000,1.000000
BFyx6I55,200,0, test, 3, 1, 14, 3, 1, 1, 3, 0.55, 0.35, right, 2, 0.35, 0.45, 0.55, 0.65, 0.9888547000009567, 1, 10.000000,40.000000,1.000000,6.000000,0.500000,1.000000
BFyx6I55,200,0, test, 3, 1, 15, 1, 4, 1, 4, 0.35, 0.65, left, 1, 0.35, 0.45, 0.55, 0.65, 1.3582282999996096, 0, 10.000000,40.000000,1.000000,6.000000,0.500000,1.000000
BFyx6I55,200,0, test, 3, 1, 16, 1, 2, 2, 1, 0.35, 0.45, right, 2, 0.35, 0.45, 0.55, 0.65, 0.37707469999804744, 0, 10.000000,40.000000,1.000000,6.000000,0.500000,1.000000
BFyx6I55,200,0, test, 3, 1, 17, 2, 1, 2, 1, 0.45, 0.35, left, 1, 0.35, 0.45, 0.55, 0.65, 0.38679709999996703, 0, 10.000000,40.000000,1.000000,6.000000,0.500000,1.000000
BFyx6I55,200,0, test, 3, 1, 18, 4, 2, 2, 4, 0.65, 0.45, right, 2, 0.35, 0.45, 0.55, 0.65, 1.1778341999997792, 0, 10.000000,40.000000,1.000000,6.000000,0.500000,1.000000
BFyx6I55,200,0, test, 3, 1, 19, 1, 3, 1, 3, 0.35, 0.55, left, 1, 0.35, 0.45, 0.55, 0.65, 1.3185438000000431, 1, 11.000000,41.000000,1.000000,6.000000,0.500000,1.000000
BFyx6I55,200,0, test, 3, 1, 20, 2, 4, 4, 2, 0.45, 0.65, right, 2, 0.35, 0.45, 0.55, 0.65, 1.7068553999997675, 0, 11.000000,41.000000,1.000000,6.000000,0.500000,1.000000
BFyx6I55,200,0, test, 3, 1, 21, 1, 4, 4, 1, 0.35, 0.65, right, 2, 0.35, 0.45, 0.55, 0.65, 0.8204504999994242, 0, 11.000000,41.000000,1.000000,6.000000,0.500000,1.000000
BFyx6I55,200,0, test, 3, 1, 22, 1, 3, 1, 3, 0.35, 0.55, left, 1, 0.35, 0.45, 0.55, 0.65, 1.386659799998597, 0, 11.000000,41.000000,1.000000,6.000000,0.500000,1.000000
BFyx6I55,200,0, test, 3, 1, 23, 2, 1, 1, 2, 0.45, 0.35, right, 2, 0.35, 0.45, 0.55, 0.65, 0.7774528999980248, 1, 12.000000,42.000000,1.000000,6.000000,0.500000,1.000000
BFyx6I55,200,0, test, 3, 1, 24, 1, 3, 3, 1, 0.35, 0.55, right, 2, 0.35, 0.45, 0.55, 0.65, 0.8748183000025165, 0, 12.000000,42.000000,1.000000,6.000000,0.500000,1.000000
BFyx6I55,200,0, test, 3, 1, 25, 1, 2, 2, 1, 0.35, 0.45, right, 2, 0.35, 0.45, 0.55, 0.65, 1.0531421999985469, 1, 13.000000,43.000000,1.000000,6.000000,0.500000,1.000000
BFyx6I55,200,0, test, 4, 7, 1, 1, 3, 3, 1, 0.35, 0.55, right, 2, 0.35, 0.45, 0.55, 0.65, 0.7964495000014722, 0, 0.000000,43.000000,1.000000,6.000000,0.500000,1.000000
BFyx6I55,200,0, test, 4, 7, 2, 2, 3, 3, 2, 0.45, 0.55, right, 2, 0.35, 0.45, 0.55, 0.65, 0.8739828999969177, 1, 1.000000,44.000000,1.000000,6.000000,0.500000,1.000000
BFyx6I55,200,0, test, 4, 7, 3, 1, 2, 2, 1, 0.35, 0.45, right, 2, 0.35, 0.45, 0.55, 0.65, 1.6270989000004192, 0, 1.000000,44.000000,1.000000,6.000000,0.500000,1.000000
BFyx6I55,200,0, test, 4, 7, 4, 2, 4, 4, 2, 0.45, 0.65, right, 2, 0.35, 0.45, 0.55, 0.65, 1.219146700001147, 0, 1.000000,44.000000,1.000000,6.000000,0.500000,1.000000
BFyx6I55,200,0, test, 4, 7, 5, 4, 1, 1, 4, 0.65, 0.35, right, 2, 0.35, 0.45, 0.55, 0.65, 1.3679640000009385, 1, 2.000000,45.000000,1.000000,6.000000,0.500000,1.000000
BFyx6I55,200,0, test, 4, 7, 6, 3, 2, 3, 2, 0.55, 0.45, left, 1, 0.35, 0.45, 0.55, 0.65, 1.270028499999171, 1, 3.000000,46.000000,1.000000,6.000000,0.500000,1.000000
BFyx6I55,200,0, test, 4, 7, 7, 3, 2, 3, 2, 0.55, 0.45, left, 1, 0.35, 0.45, 0.55, 0.65, 0.5486791000002995, 0, 3.000000,46.000000,1.000000,6.000000,0.500000,1.000000
BFyx6I55,200,0, test, 4, 7, 8, 2, 4, 4, 2, 0.45, 0.65, right, 2, 0.35, 0.45, 0.55, 0.65, 0.4809385000007751, 1, 4.000000,47.000000,1.000000,6.000000,0.500000,1.000000
BFyx6I55,200,0, test, 4, 7, 9, 4, 3, 4, 3, 0.65, 0.55, left, 1, 0.35, 0.45, 0.55, 0.65, 0.2367441999995208, 1, 5.000000,48.000000,1.000000,6.000000,0.500000,1.000000
BFyx6I55,200,0, test, 4, 7, 10, 1, 4, 4, 1, 0.35, 0.65, right, 2, 0.35, 0.45, 0.55, 0.65, 0.24657039999874542, 0, 5.000000,48.000000,1.000000,6.000000,0.500000,1.000000
BFyx6I55,200,0, test, 4, 7, 11, 4, 2, 4, 2, 0.65, 0.45, left, 1, 0.35, 0.45, 0.55, 0.65, 0.6408334000007017, 0, 5.000000,48.000000,1.000000,6.000000,0.500000,1.000000
BFyx6I55,200,0, test, 4, 7, 12, 3, 1, 1, 3, 0.55, 0.35, right, 2, 0.35, 0.45, 0.55, 0.65, 0.5128465999987384, 1, 6.000000,49.000000,1.000000,6.000000,0.500000,1.000000
BFyx6I55,200,0, test, 4, 7, 13, 4, 3, 3, 4, 0.65, 0.55, right, 2, 0.35, 0.45, 0.55, 0.65, 1.124901700000919, 1, 7.000000,50.000000,1.000000,6.000000,0.500000,1.000000
BFyx6I55,200,0, test, 4, 7, 14, 4, 3, 3, 4, 0.65, 0.55, right, 2, 0.35, 0.45, 0.55, 0.65, 0.47258700000020326, 1, 8.000000,51.000000,1.000000,6.000000,0.500000,1.000000
BFyx6I55,200,0, test, 4, 7, 15, 3, 1, 3, 1, 0.55, 0.35, left, 1, 0.35, 0.45, 0.55, 0.65, 0.7741305999988981, 1, 9.000000,52.000000,1.000000,6.000000,0.500000,1.000000
BFyx6I55,200,0, test, 4, 7, 16, 2, 4, 2, 4, 0.45, 0.65, left, 1, 0.35, 0.45, 0.55, 0.65, 1.2642210999983945, 0, 9.000000,52.000000,1.000000,6.000000,0.500000,1.000000
BFyx6I55,200,0, test, 4, 7, 17, 3, 4, 4, 3, 0.55, 0.65, right, 2, 0.35, 0.45, 0.55, 0.65, 0.650125799998932, 1, 10.000000,53.000000,1.000000,6.000000,0.500000,1.000000
BFyx6I55,200,0, test, 4, 7, 18, 1, 2, 1, 2, 0.35, 0.45, left, 1, 0.35, 0.45, 0.55, 0.65, 0.9900637999999162, 0, 10.000000,53.000000,1.000000,6.000000,0.500000,1.000000
BFyx6I55,200,0, test, 4, 7, 19, 2, 1, 2, 1, 0.45, 0.35, left, 1, 0.35, 0.45, 0.55, 0.65, 1.0624020999966888, 0, 10.000000,53.000000,1.000000,6.000000,0.500000,1.000000
BFyx6I55,200,0, test, 4, 7, 20, 4, 2, 2, 4, 0.65, 0.45, right, 2, 0.35, 0.45, 0.55, 0.65, 0.785752699997829, 0, 10.000000,53.000000,1.000000,6.000000,0.500000,1.000000
BFyx6I55,200,0, test, 4, 7, 21, 1, 4, 4, 1, 0.35, 0.65, right, 2, 0.35, 0.45, 0.55, 0.65, 0.8822379000012006, 0, 10.000000,53.000000,1.000000,6.000000,0.500000,1.000000
BFyx6I55,200,0, test, 4, 7, 22, 4, 1, 1, 4, 0.65, 0.35, right, 2, 0.35, 0.45, 0.55, 0.65, 1.057703099999344, 1, 11.000000,54.000000,1.000000,6.000000,0.500000,1.000000
BFyx6I55,200,0, test, 4, 7, 23, 2, 1, 2, 1, 0.45, 0.35, left, 1, 0.35, 0.45, 0.55, 0.65, 1.0303444000019226, 0, 11.000000,54.000000,1.000000,6.000000,0.500000,1.000000
BFyx6I55,200,0, test, 4, 7, 24, 4, 3, 3, 4, 0.65, 0.55, right, 2, 0.35, 0.45, 0.55, 0.65, 0.5976851000013994, 0, 11.000000,54.000000,1.000000,6.000000,0.500000,1.000000
BFyx6I55,200,0, test, 4, 7, 25, 4, 1, 1, 4, 0.65, 0.35, right, 2, 0.35, 0.45, 0.55, 0.65, 0.975976300000184, 1, 12.000000,55.000000,1.000000,6.000000,0.500000,1.000000
BFyx6I55,200,0, test, 5, 1, 1, 1, 4, 4, 1, 0.35, 0.65, right, 2, 0.35, 0.45, 0.55, 0.65, 1.5531977999999071, 0, 0.000000,55.000000,1.000000,6.000000,0.500000,1.000000
BFyx6I55,200,0, test, 5, 1, 2, 3, 1, 3, 1, 0.55, 0.35, left, 1, 0.35, 0.45, 0.55, 0.65, 0.7683961000002455, 0, 0.000000,55.000000,1.000000,6.000000,0.500000,1.000000
BFyx6I55,200,0, test, 5, 1, 3, 2, 3, 3, 2, 0.45, 0.55, right, 2, 0.35, 0.45, 0.55, 0.65, 0.7018380999979854, 0, 0.000000,55.000000,1.000000,6.000000,0.500000,1.000000
BFyx6I55,200,0, test, 5, 1, 4, 1, 4, 4, 1, 0.35, 0.65, right, 2, 0.35, 0.45, 0.55, 0.65, 0.8874682000023313, 0, 0.000000,55.000000,1.000000,6.000000,0.500000,1.000000
BFyx6I55,200,0, test, 5, 1, 5, 1, 2, 1, 2, 0.35, 0.45, left, 1, 0.35, 0.45, 0.55, 0.65, 0.7081132999992406, 0, 0.000000,55.000000,1.000000,6.000000,0.500000,1.000000
BFyx6I55,200,0, test, 5, 1, 6, 4, 3, 4, 3, 0.65, 0.55, left, 1, 0.35, 0.45, 0.55, 0.65, 0.9212050999994972, 0, 0.000000,55.000000,1.000000,6.000000,0.500000,1.000000
BFyx6I55,200,0, test, 5, 1, 7, 3, 1, 1, 3, 0.55, 0.35, right, 2, 0.35, 0.45, 0.55, 0.65, 0.8086387000003015, 0, 0.000000,55.000000,1.000000,6.000000,0.500000,1.000000
BFyx6I55,200,0, test, 5, 1, 8, 1, 4, 4, 1, 0.35, 0.65, right, 2, 0.35, 0.45, 0.55, 0.65, 0.8008808000013232, 1, 1.000000,56.000000,1.000000,6.000000,0.500000,1.000000
BFyx6I55,200,0, test, 5, 1, 9, 3, 4, 4, 3, 0.55, 0.65, right, 2, 0.35, 0.45, 0.55, 0.65, 1.2938628000010794, 0, 1.000000,56.000000,1.000000,6.000000,0.500000,1.000000
BFyx6I55,200,0, test, 5, 1, 10, 4, 3, 4, 3, 0.65, 0.55, left, 1, 0.35, 0.45, 0.55, 0.65, 0.8197008999995887, 1, 2.000000,57.000000,1.000000,6.000000,0.500000,1.000000
BFyx6I55,200,0, test, 5, 1, 11, 4, 3, 4, 3, 0.65, 0.55, left, 1, 0.35, 0.45, 0.55, 0.65, 0.5194775999989361, 0, 2.000000,57.000000,1.000000,6.000000,0.500000,1.000000
BFyx6I55,200,0, test, 5, 1, 12, 4, 3, 3, 4, 0.65, 0.55, right, 2, 0.35, 0.45, 0.55, 0.65, 0.8305760999974154, 0, 2.000000,57.000000,1.000000,6.000000,0.500000,1.000000
BFyx6I55,200,0, test, 5, 1, 13, 3, 1, 1, 3, 0.55, 0.35, right, 2, 0.35, 0.45, 0.55, 0.65, 0.8230513999988034, 1, 3.000000,58.000000,1.000000,6.000000,0.500000,1.000000
BFyx6I55,200,0, test, 5, 1, 14, 2, 1, 2, 1, 0.45, 0.35, left, 1, 0.35, 0.45, 0.55, 0.65, 0.6387383000001137, 1, 4.000000,59.000000,1.000000,6.000000,0.500000,1.000000
BFyx6I55,200,0, test, 5, 1, 15, 1, 4, 4, 1, 0.35, 0.65, right, 2, 0.35, 0.45, 0.55, 0.65, 0.8387578999972902, 1, 5.000000,60.000000,1.000000,6.000000,0.500000,1.000000
BFyx6I55,200,0, test, 5, 1, 16, 1, 3, 1, 3, 0.35, 0.55, left, 1, 0.35, 0.45, 0.55, 0.65, 0.7134470000019064, 1, 6.000000,61.000000,1.000000,6.000000,0.500000,1.000000
BFyx6I55,200,0, test, 5, 1, 17, 1, 4, 4, 1, 0.35, 0.65, right, 2, 0.35, 0.45, 0.55, 0.65, 0.3931336999994528, 0, 6.000000,61.000000,1.000000,6.000000,0.500000,1.000000
BFyx6I55,200,0, test, 5, 1, 18, 4, 1, 4, 1, 0.65, 0.35, left, 1, 0.35, 0.45, 0.55, 0.65, 0.585622800001147, 1, 7.000000,62.000000,1.000000,6.000000,0.500000,1.000000
BFyx6I55,200,0, test, 5, 1, 19, 3, 2, 2, 3, 0.55, 0.45, right, 2, 0.35, 0.45, 0.55, 0.65, 0.6469451999982994, 1, 8.000000,63.000000,1.000000,6.000000,0.500000,1.000000
BFyx6I55,200,0, test, 5, 1, 20, 1, 2, 2, 1, 0.35, 0.45, right, 2, 0.35, 0.45, 0.55, 0.65, 0.9906260000025213, 0, 8.000000,63.000000,1.000000,6.000000,0.500000,1.000000
BFyx6I55,200,0, test, 5, 1, 21, 1, 4, 4, 1, 0.35, 0.65, right, 2, 0.35, 0.45, 0.55, 0.65, 0.6831326999999874, 0, 8.000000,63.000000,1.000000,6.000000,0.500000,1.000000
BFyx6I55,200,0, test, 5, 1, 22, 3, 4, 4, 3, 0.55, 0.65, right, 2, 0.35, 0.45, 0.55, 0.65, 0.5164407999982359, 1, 9.000000,64.000000,1.000000,6.000000,0.500000,1.000000
BFyx6I55,200,0, test, 5, 1, 23, 2, 4, 2, 4, 0.45, 0.65, left, 1, 0.35, 0.45, 0.55, 0.65, 0.3576532999977644, 0, 9.000000,64.000000,1.000000,6.000000,0.500000,1.000000
BFyx6I55,200,0, test, 5, 1, 24, 4, 3, 4, 3, 0.65, 0.55, left, 1, 0.35, 0.45, 0.55, 0.65, 0.3723422999973991, 1, 10.000000,65.000000,1.000000,6.000000,0.500000,1.000000
BFyx6I55,200,0, test, 5, 1, 25, 1, 4, 4, 1, 0.35, 0.65, right, 2, 0.35, 0.45, 0.55, 0.65, 0.2568786000010732, 0, 10.000000,65.000000,1.000000,6.000000,0.500000,1.000000
BFyx6I55,200,0, test, 6, 7, 1, 3, 4, 3, 4, 0.55, 0.65, left, 1, 0.35, 0.45, 0.55, 0.65, 0.6601565999990271, 1, 1.000000,66.000000,1.000000,6.000000,0.500000,1.000000
BFyx6I55,200,0, test, 6, 7, 2, 2, 3, 3, 2, 0.45, 0.55, right, 2, 0.35, 0.45, 0.55, 0.65, 0.2998259000014514, 0, 1.000000,66.000000,1.000000,6.000000,0.500000,1.000000
BFyx6I55,200,0, test, 6, 7, 3, 1, 4, 1, 4, 0.35, 0.65, left, 1, 0.35, 0.45, 0.55, 0.65, 0.348607500000071, 0, 1.000000,66.000000,1.000000,6.000000,0.500000,1.000000
BFyx6I55,200,0, test, 6, 7, 4, 3, 2, 2, 3, 0.55, 0.45, right, 2, 0.35, 0.45, 0.55, 0.65, 0.5061127999979362, 0, 1.000000,66.000000,1.000000,6.000000,0.500000,1.000000
BFyx6I55,200,0, test, 6, 7, 5, 4, 1, 4, 1, 0.65, 0.35, left, 1, 0.35, 0.45, 0.55, 0.65, 0.5025873000013235, 1, 2.000000,67.000000,1.000000,6.000000,0.500000,1.000000
BFyx6I55,200,0, test, 6, 7, 6, 3, 4, 4, 3, 0.55, 0.65, right, 2, 0.35, 0.45, 0.55, 0.65, 0.23642059999838239, 0, 2.000000,67.000000,1.000000,6.000000,0.500000,1.000000
BFyx6I55,200,0, test, 6, 7, 7, 4, 1, 4, 1, 0.65, 0.35, left, 1, 0.35, 0.45, 0.55, 0.65, 0.3115959999995539, 1, 3.000000,68.000000,1.000000,6.000000,0.500000,1.000000
BFyx6I55,200,0, test, 6, 7, 8, 1, 3, 3, 1, 0.35, 0.55, right, 2, 0.35, 0.45, 0.55, 0.65, 0.3043509000017366, 0, 3.000000,68.000000,1.000000,6.000000,0.500000,1.000000
BFyx6I55,200,0, test, 6, 7, 9, 2, 4, 2, 4, 0.45, 0.65, left, 1, 0.35, 0.45, 0.55, 0.65, 0.38414299999931245, 1, 4.000000,69.000000,1.000000,6.000000,0.500000,1.000000
BFyx6I55,200,0, test, 6, 7, 10, 3, 4, 4, 3, 0.55, 0.65, right, 2, 0.35, 0.45, 0.55, 0.65, 0.47725740000169026, 1, 5.000000,70.000000,1.000000,6.000000,0.500000,1.000000
BFyx6I55,200,0, test, 6, 7, 11, 4, 3, 4, 3, 0.65, 0.55, left, 1, 0.35, 0.45, 0.55, 0.65, 0.6278944999976375, 0, 5.000000,70.000000,1.000000,6.000000,0.500000,1.000000
BFyx6I55,200,0, test, 6, 7, 12, 4, 3, 3, 4, 0.65, 0.55, right, 2, 0.35, 0.45, 0.55, 0.65, 0.6020203000007314, 0, 5.000000,70.000000,1.000000,6.000000,0.500000,1.000000
BFyx6I55,200,0, test, 6, 7, 13, 3, 1, 3, 1, 0.55, 0.35, left, 1, 0.35, 0.45, 0.55, 0.65, 0.35976859999937005, 1, 6.000000,71.000000,1.000000,6.000000,0.500000,1.000000
BFyx6I55,200,0, test, 6, 7, 14, 1, 4, 4, 1, 0.35, 0.65, right, 2, 0.35, 0.45, 0.55, 0.65, 0.3496441999996023, 0, 6.000000,71.000000,1.000000,6.000000,0.500000,1.000000
BFyx6I55,200,0, test, 6, 7, 15, 2, 1, 2, 1, 0.45, 0.35, left, 1, 0.35, 0.45, 0.55, 0.65, 0.2891526999992493, 0, 6.000000,71.000000,1.000000,6.000000,0.500000,1.000000
BFyx6I55,200,0, test, 6, 7, 16, 2, 1, 1, 2, 0.45, 0.35, right, 2, 0.35, 0.45, 0.55, 0.65, 0.401671499999793, 0, 6.000000,71.000000,1.000000,6.000000,0.500000,1.000000
BFyx6I55,200,0, test, 6, 7, 17, 4, 2, 4, 2, 0.65, 0.45, left, 1, 0.35, 0.45, 0.55, 0.65, 0.7335906000007526, 1, 7.000000,72.000000,1.000000,6.000000,0.500000,1.000000
BFyx6I55,200,0, test, 6, 7, 18, 2, 4, 4, 2, 0.45, 0.65, right, 2, 0.35, 0.45, 0.55, 0.65, 0.5410519999968528, 0, 7.000000,72.000000,1.000000,6.000000,0.500000,1.000000
BFyx6I55,200,0, test, 6, 7, 19, 1, 4, 1, 4, 0.35, 0.65, left, 1, 0.35, 0.45, 0.55, 0.65, 0.48870479999823146, 0, 7.000000,72.000000,1.000000,6.000000,0.500000,1.000000
BFyx6I55,200,0, test, 6, 7, 20, 4, 3, 3, 4, 0.65, 0.55, right, 2, 0.35, 0.45, 0.55, 0.65, 0.2975049999986368, 1, 8.000000,73.000000,1.000000,6.000000,0.500000,1.000000
BFyx6I55,200,0, test, 6, 7, 21, 1, 3, 1, 3, 0.35, 0.55, left, 1, 0.35, 0.45, 0.55, 0.65, 0.4713056000000506, 0, 8.000000,73.000000,1.000000,6.000000,0.500000,1.000000
BFyx6I55,200,0, test, 6, 7, 22, 2, 1, 1, 2, 0.45, 0.35, right, 2, 0.35, 0.45, 0.55, 0.65, 0.20934459999989485, 1, 9.000000,74.000000,1.000000,6.000000,0.500000,1.000000
BFyx6I55,200,0, test, 6, 7, 23, 4, 2, 4, 2, 0.65, 0.45, left, 1, 0.35, 0.45, 0.55, 0.65, 0.6609790000002249, 0, 9.000000,74.000000,1.000000,6.000000,0.500000,1.000000
BFyx6I55,200,0, test, 6, 7, 24, 1, 2, 2, 1, 0.35, 0.45, right, 2, 0.35, 0.45, 0.55, 0.65, 0.2760340000022552, 0, 9.000000,74.000000,1.000000,6.000000,0.500000,1.000000
BFyx6I55,200,0, test, 6, 7, 25, 3, 1, 3, 1, 0.55, 0.35, left, 1, 0.35, 0.45, 0.55, 0.65, 0.3422460999972827, 0, 9.000000,74.000000,1.000000,6.000000,0.500000,1.000000
BFyx6I55,200,0, test, 7, 1, 1, 2, 1, 1, 2, 0.45, 0.35, right, 2, 0.35, 0.45, 0.55, 0.65, 0.5141909000012674, 0, 0.000000,74.000000,1.000000,6.000000,0.500000,1.000000
BFyx6I55,200,0, test, 7, 1, 2, 3, 2, 3, 2, 0.55, 0.45, left, 1, 0.35, 0.45, 0.55, 0.65, 0.23850229999879957, 0, 0.000000,74.000000,1.000000,6.000000,0.500000,1.000000
BFyx6I55,200,0, test, 7, 1, 3, 1, 3, 3, 1, 0.35, 0.55, right, 2, 0.35, 0.45, 0.55, 0.65, 0.35407580000173766, 1, 1.000000,75.000000,1.000000,6.000000,0.500000,1.000000
BFyx6I55,200,0, test, 7, 1, 4, 1, 4, 4, 1, 0.35, 0.65, right, 2, 0.35, 0.45, 0.55, 0.65, 0.2560099000002083, 0, 1.000000,75.000000,1.000000,6.000000,0.500000,1.000000
BFyx6I55,200,0, test, 7, 1, 5, 3, 2, 3, 2, 0.55, 0.45, left, 1, 0.35, 0.45, 0.55, 0.65, 0.22241199999916716, 0, 1.000000,75.000000,1.000000,6.000000,0.500000,1.000000
BFyx6I55,200,0, test, 7, 1, 6, 2, 4, 2, 4, 0.45, 0.65, left, 1, 0.35, 0.45, 0.55, 0.65, 0.24257139999826904, 0, 1.000000,75.000000,1.000000,6.000000,0.500000,1.000000
BFyx6I55,200,0, test, 7, 1, 7, 4, 1, 1, 4, 0.65, 0.35, right, 2, 0.35, 0.45, 0.55, 0.65, 0.26225560000239057, 0, 1.000000,75.000000,1.000000,6.000000,0.500000,1.000000
BFyx6I55,200,0, test, 7, 1, 8, 4, 1, 1, 4, 0.65, 0.35, right, 2, 0.35, 0.45, 0.55, 0.65, 0.45195179999791435, 1, 2.000000,76.000000,1.000000,6.000000,0.500000,1.000000
BFyx6I55,200,0, test, 7, 1, 9, 1, 2, 2, 1, 0.35, 0.45, right, 2, 0.35, 0.45, 0.55, 0.65, 0.6943309999987832, 1, 3.000000,77.000000,1.000000,6.000000,0.500000,1.000000
BFyx6I55,200,0, test, 7, 1, 10, 3, 2, 3, 2, 0.55, 0.45, left, 1, 0.35, 0.45, 0.55, 0.65, 0.32798840000032214, 0, 3.000000,77.000000,1.000000,6.000000,0.500000,1.000000
BFyx6I55,200,0, test, 7, 1, 11, 4, 2, 4, 2, 0.65, 0.45, left, 1, 0.35, 0.45, 0.55, 0.65, 0.3608257000014419, 0, 3.000000,77.000000,1.000000,6.000000,0.500000,1.000000
BFyx6I55,200,0, test, 7, 1, 12, 4, 3, 4, 3, 0.65, 0.55, left, 1, 0.35, 0.45, 0.55, 0.65, 0.27080449999994016, 0, 3.000000,77.000000,1.000000,6.000000,0.500000,1.000000
BFyx6I55,200,0, test, 7, 1, 13, 2, 1, 1, 2, 0.45, 0.35, right, 2, 0.35, 0.45, 0.55, 0.65, 0.261178499997186, 1, 4.000000,78.000000,1.000000,6.000000,0.500000,1.000000
BFyx6I55,200,0, test, 7, 1, 14, 2, 4, 4, 2, 0.45, 0.65, right, 2, 0.35, 0.45, 0.55, 0.65, 0.3916551000002073, 1, 5.000000,79.000000,1.000000,6.000000,0.500000,1.000000
BFyx6I55,200,0, test, 7, 1, 15, 3, 1, 1, 3, 0.55, 0.35, right, 2, 0.35, 0.45, 0.55, 0.65, 0.42035740000210353, 0, 5.000000,79.000000,1.000000,6.000000,0.500000,1.000000
BFyx6I55,200,0, test, 7, 1, 16, 2, 1, 1, 2, 0.45, 0.35, right, 2, 0.35, 0.45, 0.55, 0.65, 0.2437726999996812, 0, 5.000000,79.000000,1.000000,6.000000,0.500000,1.000000
BFyx6I55,200,0, test, 7, 1, 17, 1, 2, 1, 2, 0.35, 0.45, left, 1, 0.35, 0.45, 0.55, 0.65, 0.2794684000000416, 0, 5.000000,79.000000,1.000000,6.000000,0.500000,1.000000
BFyx6I55,200,0, test, 7, 1, 18, 1, 2, 1, 2, 0.35, 0.45, left, 1, 0.35, 0.45, 0.55, 0.65, 0.2576035999991291, 0, 5.000000,79.000000,1.000000,6.000000,0.500000,1.000000
BFyx6I55,200,0, test, 7, 1, 19, 1, 4, 1, 4, 0.35, 0.65, left, 1, 0.35, 0.45, 0.55, 0.65, 0.2591242999988026, 1, 6.000000,80.000000,1.000000,6.000000,0.500000,1.000000
BFyx6I55,200,0, test, 7, 1, 20, 1, 4, 1, 4, 0.35, 0.65, left, 1, 0.35, 0.45, 0.55, 0.65, 0.30249940000067, 0, 6.000000,80.000000,1.000000,6.000000,0.500000,1.000000
BFyx6I55,200,0, test, 7, 1, 21, 2, 4, 4, 2, 0.45, 0.65, right, 2, 0.35, 0.45, 0.55, 0.65, 0.28690540000025067, 0, 6.000000,80.000000,1.000000,6.000000,0.500000,1.000000
BFyx6I55,200,0, test, 7, 1, 22, 4, 2, 2, 4, 0.65, 0.45, right, 2, 0.35, 0.45, 0.55, 0.65, 0.5561687000008533, 0, 6.000000,80.000000,1.000000,6.000000,0.500000,1.000000
BFyx6I55,200,0, test, 7, 1, 23, 1, 4, 4, 1, 0.35, 0.65, right, 2, 0.35, 0.45, 0.55, 0.65, 0.36743919999935315, 1, 7.000000,81.000000,1.000000,6.000000,0.500000,1.000000
BFyx6I55,200,0, test, 7, 1, 24, 1, 4, 4, 1, 0.35, 0.65, right, 2, 0.35, 0.45, 0.55, 0.65, 0.25305550000121, 0, 7.000000,81.000000,1.000000,6.000000,0.500000,1.000000
BFyx6I55,200,0, test, 7, 1, 25, 1, 4, 4, 1, 0.35, 0.65, right, 2, 0.35, 0.45, 0.55, 0.65, 0.5395390000012412, 1, 8.000000,82.000000,1.000000,6.000000,0.500000,1.000000
BFyx6I55,200,0, test, 8, 7, 1, 1, 2, 2, 1, 0.35, 0.45, right, 2, 0.35, 0.45, 0.55, 0.65, 0.5160961000001407, 1, 1.000000,83.000000,1.000000,6.000000,0.500000,1.000000
BFyx6I55,200,0, test, 8, 7, 2, 4, 1, 4, 1, 0.65, 0.35, left, 1, 0.35, 0.45, 0.55, 0.65, 2.0001813000017137, 1, 2.000000,84.000000,1.000000,6.000000,0.500000,1.000000
BFyx6I55,200,0, test, 8, 7, 3, 1, 3, 3, 1, 0.35, 0.55, right, 2, 0.35, 0.45, 0.55, 0.65, 0.5574426000021049, 1, 3.000000,85.000000,1.000000,6.000000,0.500000,1.000000
BFyx6I55,200,0, test, 8, 7, 4, 2, 1, 2, 1, 0.45, 0.35, left, 1, 0.35, 0.45, 0.55, 0.65, 0.2927975999991759, 0, 3.000000,85.000000,1.000000,6.000000,0.500000,1.000000
BFyx6I55,200,0, test, 8, 7, 5, 3, 1, 1, 3, 0.55, 0.35, right, 2, 0.35, 0.45, 0.55, 0.65, 0.38134890000219457, 0, 3.000000,85.000000,1.000000,6.000000,0.500000,1.000000
BFyx6I55,200,0, test, 8, 7, 6, 4, 1, 4, 1, 0.65, 0.35, left, 1, 0.35, 0.45, 0.55, 0.65, 0.4778900999990583, 0, 3.000000,85.000000,1.000000,6.000000,0.500000,1.000000
BFyx6I55,200,0, test, 8, 7, 7, 4, 3, 3, 4, 0.65, 0.55, right, 2, 0.35, 0.45, 0.55, 0.65, 0.2133493000001181, 1, 4.000000,86.000000,1.000000,6.000000,0.500000,1.000000
BFyx6I55,200,0, test, 8, 7, 8, 2, 3, 2, 3, 0.45, 0.55, left, 1, 0.35, 0.45, 0.55, 0.65, 0.88895279999997, 0, 4.000000,86.000000,1.000000,6.000000,0.500000,1.000000
BFyx6I55,200,0, test, 8, 7, 9, 2, 1, 1, 2, 0.45, 0.35, right, 2, 0.35, 0.45, 0.55, 0.65, 0.9706055000024207, 0, 4.000000,86.000000,1.000000,6.000000,0.500000,1.000000
BFyx6I55,200,0, test, 8, 7, 10, 2, 4, 2, 4, 0.45, 0.65, left, 1, 0.35, 0.45, 0.55, 0.65, 0.6912775999990117, 0, 4.000000,86.000000,1.000000,6.000000,0.500000,1.000000
BFyx6I55,200,0, test, 8, 7, 11, 2, 1, 1, 2, 0.45, 0.35, right, 2, 0.35, 0.45, 0.55, 0.65, 0.7768587999998999, 0, 4.000000,86.000000,1.000000,6.000000,0.500000,1.000000
BFyx6I55,200,0, test, 8, 7, 12, 2, 3, 2, 3, 0.45, 0.55, left, 1, 0.35, 0.45, 0.55, 0.65, 0.31427009999970323, 0, 4.000000,86.000000,1.000000,6.000000,0.500000,1.000000
BFyx6I55,200,0, test, 8, 7, 13, 1, 4, 4, 1, 0.35, 0.65, right, 2, 0.35, 0.45, 0.55, 0.65, 0.4437465999981214, 0, 4.000000,86.000000,1.000000,6.000000,0.500000,1.000000
BFyx6I55,200,0, test, 8, 7, 14, 2, 4, 2, 4, 0.45, 0.65, left, 1, 0.35, 0.45, 0.55, 0.65, 0.32277670000257785, 1, 5.000000,87.000000,1.000000,6.000000,0.500000,1.000000
BFyx6I55,200,0, test, 8, 7, 15, 1, 2, 2, 1, 0.35, 0.45, right, 2, 0.35, 0.45, 0.55, 0.65, 0.4061661000014283, 0, 5.000000,87.000000,1.000000,6.000000,0.500000,1.000000
BFyx6I55,200,0, test, 8, 7, 16, 4, 2, 4, 2, 0.65, 0.45, left, 1, 0.35, 0.45, 0.55, 0.65, 0.6597894000005908, 1, 6.000000,88.000000,1.000000,6.000000,0.500000,1.000000
BFyx6I55,200,0, test, 8, 7, 17, 3, 2, 2, 3, 0.55, 0.45, right, 2, 0.35, 0.45, 0.55, 0.65, 0.6940611999998509, 1, 7.000000,89.000000,1.000000,6.000000,0.500000,1.000000
BFyx6I55,200,0, test, 8, 7, 18, 1, 3, 1, 3, 0.35, 0.55, left, 1, 0.35, 0.45, 0.55, 0.65, 0.7225185000024794, 0, 7.000000,89.000000,1.000000,6.000000,0.500000,1.000000
BFyx6I55,200,0, test, 8, 7, 19, 3, 4, 4, 3, 0.55, 0.65, right, 2, 0.35, 0.45, 0.55, 0.65, 0.3631729999979143, 1, 8.000000,90.000000,1.000000,6.000000,0.500000,1.000000
BFyx6I55,200,0, test, 8, 7, 20, 3, 2, 3, 2, 0.55, 0.45, left, 1, 0.35, 0.45, 0.55, 0.65, 0.7123095999995712, 0, 8.000000,90.000000,1.000000,6.000000,0.500000,1.000000
BFyx6I55,200,0, test, 8, 7, 21, 4, 2, 2, 4, 0.65, 0.45, right, 2, 0.35, 0.45, 0.55, 0.65, 0.5088398000007146, 1, 9.000000,91.000000,1.000000,6.000000,0.500000,1.000000
BFyx6I55,200,0, test, 8, 7, 22, 4, 2, 2, 4, 0.65, 0.45, right, 2, 0.35, 0.45, 0.55, 0.65, 0.5378984000017226, 1, 10.000000,92.000000,1.000000,6.000000,0.500000,1.000000
BFyx6I55,200,0, test, 8, 7, 23, 2, 1, 2, 1, 0.45, 0.35, left, 1, 0.35, 0.45, 0.55, 0.65, 0.755834200001118, 1, 11.000000,93.000000,1.000000,6.000000,0.500000,1.000000
BFyx6I55,200,0, test, 8, 7, 24, 1, 3, 1, 3, 0.35, 0.55, left, 1, 0.35, 0.45, 0.55, 0.65, 1.7592733999990742, 0, 11.000000,93.000000,1.000000,6.000000,0.500000,1.000000
BFyx6I55,200,0, test, 8, 7, 25, 2, 4, 4, 2, 0.45, 0.65, right, 2, 0.35, 0.45, 0.55, 0.65, 0.5859627999998338, 0, 11.000000,93.000000,1.000000,6.000000,0.500000,1.000000
