ShaharID, group, counterbalance, block_type, block, delay_condition, trial, chosen, unchosen, offer_left_image, offer_right_image, exp_value_chosen, exp_value_unchosen, choice_location, choice_key, exp_value1, exp_value2, exp_value3, exp_value4, RT, reward, coins_per_block, coins_per_task,ITI_duration,rt_deadline,choice_feedback_duration,outcome_duration
iLcvR565,200,0, practice, 1, 1, 1, 3, 1, 1, 3, 0.55, 0.35, right, 2, 0.35, 0.45, 0.55, 0.65, 1.0900413999333978, 1, 1.000000,1.000000,1.000000,6.000000,0.500000,1.000000
iLcvR565,200,0, practice, 1, 1, 2, 2, 3, 2, 3, 0.45, 0.55, left, 1, 0.35, 0.45, 0.55, 0.65, 0.7917221998795867, 0, 1.000000,1.000000,1.000000,6.000000,0.500000,1.000000
iLcvR565,200,0, practice, 1, 1, 3, 3, 1, 1, 3, 0.55, 0.35, right, 2, 0.35, 0.45, 0.55, 0.65, 0.41566589986905456, 1, 2.000000,2.000000,1.000000,6.000000,0.500000,1.000000
iLcvR565,200,0, practice, 1, 1, 4, 3, 2, 3, 2, 0.55, 0.45, left, 1, 0.35, 0.45, 0.55, 0.65, 1.1011266000568867, 1, 3.000000,3.000000,1.000000,6.000000,0.500000,1.000000
iLcvR565,200,0, practice, 1, 1, 5, 1, 3, 3, 1, 0.35, 0.55, right, 2, 0.35, 0.45, 0.55, 0.65, 0.6727062000427395, 0, 3.000000,3.000000,1.000000,6.000000,0.500000,1.000000
iLcvR565,200,0, test, 1, 1, 1, 4, 2, 2, 4, 0.65, 0.45, right, 2, 0.35, 0.45, 0.55, 0.65, 0.5783194000832736, 1, 1.000000,4.000000,1.000000,6.000000,0.500000,1.000000
iLcvR565,200,0, test, 1, 1, 2, 1, 3, 1, 3, 0.35, 0.55, left, 1, 0.35, 0.45, 0.55, 0.65, 0.6995647000148892, 1, 2.000000,5.000000,1.000000,6.000000,0.500000,1.000000
iLcvR565,200,0, test, 1, 1, 3, 3, 1, 1, 3, 0.55, 0.35, right, 2, 0.35, 0.45, 0.55, 0.65, 0.6362254999112338, 1, 3.000000,6.000000,1.000000,6.000000,0.500000,1.000000
iLcvR565,200,0, test, 1, 1, 4, 2, 1, 2, 1, 0.45, 0.35, left, 1, 0.35, 0.45, 0.55, 0.65, 1.5916616001632065, 0, 3.000000,6.000000,1.000000,6.000000,0.500000,1.000000
iLcvR565,200,0, test, 1, 1, 5, 1, 2, 1, 2, 0.35, 0.45, left, 1, 0.35, 0.45, 0.55, 0.65, 0.7927578000817448, 1, 4.000000,7.000000,1.000000,6.000000,0.500000,1.000000
iLcvR565,200,0, test, 1, 1, 6, 4, 3, 3, 4, 0.65, 0.55, right, 2, 0.35, 0.45, 0.55, 0.65, 1.538765100063756, 1, 5.000000,8.000000,1.000000,6.000000,0.500000,1.000000
iLcvR565,200,0, test, 1, 1, 7, 1, 2, 1, 2, 0.35, 0.45, left, 1, 0.35, 0.45, 0.55, 0.65, 0.9427781999111176, 0, 5.000000,8.000000,1.000000,6.000000,0.500000,1.000000
iLcvR565,200,0, test, 1, 1, 8, 3, 2, 3, 2, 0.55, 0.45, left, 1, 0.35, 0.45, 0.55, 0.65, 0.9583479999564588, 1, 6.000000,9.000000,1.000000,6.000000,0.500000,1.000000
iLcvR565,200,0, test, 1, 1, 9, 4, 2, 4, 2, 0.65, 0.45, left, 1, 0.35, 0.45, 0.55, 0.65, 0.9929051999934018, 1, 7.000000,10.000000,1.000000,6.000000,0.500000,1.000000
iLcvR565,200,0, test, 1, 1, 10, 3, 1, 1, 3, 0.55, 0.35, right, 2, 0.35, 0.45, 0.55, 0.65, 1.40644589997828, 0, 7.000000,10.000000,1.000000,6.000000,0.500000,1.000000
iLcvR565,200,0, test, 1, 1, 11, 4, 1, 1, 4, 0.65, 0.35, right, 2, 0.35, 0.45, 0.55, 0.65, 1.1074057999067008, 1, 8.000000,11.000000,1.000000,6.000000,0.500000,1.000000
iLcvR565,200,0, test, 1, 1, 12, 4, 3, 3, 4, 0.65, 0.55, right, 2, 0.35, 0.45, 0.55, 0.65, 0.7540090000256896, 1, 9.000000,12.000000,1.000000,6.000000,0.500000,1.000000
iLcvR565,200,0, test, 1, 1, 13, 4, 2, 2, 4, 0.65, 0.45, right, 2, 0.35, 0.45, 0.55, 0.65, 0.38176719984039664, 0, 9.000000,12.000000,1.000000,6.000000,0.500000,1.000000
iLcvR565,200,0, test, 1, 1, 14, 1, 3, 1, 3, 0.35, 0.55, left, 1, 0.35, 0.45, 0.55, 0.65, 1.3019310000818223, 0, 9.000000,12.000000,1.000000,6.000000,0.500000,1.000000
iLcvR565,200,0, test, 1, 1, 15, 2, 1, 1, 2, 0.45, 0.35, right, 2, 0.35, 0.45, 0.55, 0.65, 1.8746559999417514, 0, 9.000000,12.000000,1.000000,6.000000,0.500000,1.000000
iLcvR565,200,0, test, 1, 1, 16, 3, 1, 1, 3, 0.55, 0.35, right, 2, 0.35, 0.45, 0.55, 0.65, 1.1446406000759453, 0, 9.000000,12.000000,1.000000,6.000000,0.500000,1.000000
iLcvR565,200,0, test, 1, 1, 17, 1, 2, 1, 2, 0.35, 0.45, left, 1, 0.35, 0.45, 0.55, 0.65, 0.4205774001311511, 1, 10.000000,13.000000,1.000000,6.000000,0.500000,1.000000
iLcvR565,200,0, test, 1, 1, 18, 4, 3, 3, 4, 0.65, 0.55, right, 2, 0.35, 0.45, 0.55, 0.65, 0.823993899859488, 0, 10.000000,13.000000,1.000000,6.000000,0.500000,1.000000
iLcvR565,200,0, test, 1, 1, 19, 1, 2, 2, 1, 0.35, 0.45, right, 2, 0.35, 0.45, 0.55, 0.65, 3.1367273000068963, 0, 10.000000,13.000000,1.000000,6.000000,0.500000,1.000000
iLcvR565,200,0, test, 1, 1, 20, 1, 2, 1, 2, 0.35, 0.45, left, 1, 0.35, 0.45, 0.55, 0.65, 1.612071700161323, 0, 10.000000,13.000000,1.000000,6.000000,0.500000,1.000000
iLcvR565,200,0, test, 1, 1, 21, 4, 1, 1, 4, 0.65, 0.35, right, 2, 0.35, 0.45, 0.55, 0.65, 0.7363684000447392, 1, 11.000000,14.000000,1.000000,6.000000,0.500000,1.000000
iLcvR565,200,0, test, 1, 1, 22, 4, 2, 4, 2, 0.65, 0.45, left, 1, 0.35, 0.45, 0.55, 0.65, 0.8643875000998378, 1, 12.000000,15.000000,1.000000,6.000000,0.500000,1.000000
iLcvR565,200,0, test, 1, 1, 23, 3, 1, 3, 1, 0.55, 0.35, left, 1, 0.35, 0.45, 0.55, 0.65, 0.7820097000803798, 1, 13.000000,16.000000,1.000000,6.000000,0.500000,1.000000
iLcvR565,200,0, test, 1, 1, 24, 1, 2, 1, 2, 0.35, 0.45, left, 1, 0.35, 0.45, 0.55, 0.65, 1.947664299979806, 0, 13.000000,16.000000,1.000000,6.000000,0.500000,1.000000
iLcvR565,200,0, test, 1, 1, 25, 4, 2, 2, 4, 0.65, 0.45, right, 2, 0.35, 0.45, 0.55, 0.65, 1.3342842999845743, 1, 14.000000,17.000000,1.000000,6.000000,0.500000,1.000000
iLcvR565,200,0, test, 2, 7, 1, 1, 2, 2, 1, 0.35, 0.45, right, 2, 0.35, 0.45, 0.55, 0.65, 0.6557412000838667, 0, 0.000000,17.000000,1.000000,6.000000,0.500000,1.000000
iLcvR565,200,0, test, 2, 7, 2, 2, 1, 1, 2, 0.45, 0.35, right, 2, 0.35, 0.45, 0.55, 0.65, 0.6415943000465631, 1, 1.000000,18.000000,1.000000,6.000000,0.500000,1.000000
iLcvR565,200,0, test, 2, 7, 3, 2, 1, 1, 2, 0.45, 0.35, right, 2, 0.35, 0.45, 0.55, 0.65, 0.9049294998403639, 0, 1.000000,18.000000,1.000000,6.000000,0.500000,1.000000
iLcvR565,200,0, test, 2, 7, 4, 4, 1, 4, 1, 0.65, 0.35, left, 1, 0.35, 0.45, 0.55, 0.65, 0.8422000000718981, 0, 1.000000,18.000000,1.000000,6.000000,0.500000,1.000000
iLcvR565,200,0, test, 2, 7, 5, 3, 1, 3, 1, 0.55, 0.35, left, 1, 0.35, 0.45, 0.55, 0.65, 1.0687945999670774, 0, 1.000000,18.000000,1.000000,6.000000,0.500000,1.000000
iLcvR565,200,0, test, 2, 7, 6, 4, 3, 4, 3, 0.65, 0.55, left, 1, 0.35, 0.45, 0.55, 0.65, 1.2860327998641878, 0, 1.000000,18.000000,1.000000,6.000000,0.500000,1.000000
iLcvR565,200,0, test, 2, 7, 7, 4, 2, 2, 4, 0.65, 0.45, right, 2, 0.35, 0.45, 0.55, 0.65, 0.10395980020985007, 1, 2.000000,19.000000,1.000000,6.000000,0.500000,1.000000
iLcvR565,200,0, test, 2, 7, 8, 4, 1, 4, 1, 0.65, 0.35, left, 1, 0.35, 0.45, 0.55, 0.65, 1.285441900137812, 1, 3.000000,20.000000,1.000000,6.000000,0.500000,1.000000
iLcvR565,200,0, test, 2, 7, 9, 4, 1, 4, 1, 0.65, 0.35, left, 1, 0.35, 0.45, 0.55, 0.65, 1.1008603000082076, 0, 3.000000,20.000000,1.000000,6.000000,0.500000,1.000000
iLcvR565,200,0, test, 2, 7, 10, 2, 1, 2, 1, 0.45, 0.35, left, 1, 0.35, 0.45, 0.55, 0.65, 2.1510129999369383, 1, 4.000000,21.000000,1.000000,6.000000,0.500000,1.000000
iLcvR565,200,0, test, 2, 7, 11, 4, 1, 1, 4, 0.65, 0.35, right, 2, 0.35, 0.45, 0.55, 0.65, 0.940403499873355, 1, 5.000000,22.000000,1.000000,6.000000,0.500000,1.000000
iLcvR565,200,0, test, 2, 7, 12, 4, 3, 3, 4, 0.65, 0.55, right, 2, 0.35, 0.45, 0.55, 0.65, 0.6925282999873161, 1, 6.000000,23.000000,1.000000,6.000000,0.500000,1.000000
iLcvR565,200,0, test, 2, 7, 13, 3, 1, 1, 3, 0.55, 0.35, right, 2, 0.35, 0.45, 0.55, 0.65, 1.113666099961847, 1, 7.000000,24.000000,1.000000,6.000000,0.500000,1.000000
iLcvR565,200,0, test, 2, 7, 14, 4, 2, 2, 4, 0.65, 0.45, right, 2, 0.35, 0.45, 0.55, 0.65, 1.5257424998562783, 1, 8.000000,25.000000,1.000000,6.000000,0.500000,1.000000
iLcvR565,200,0, test, 2, 7, 15, 3, 2, 2, 3, 0.55, 0.45, right, 2, 0.35, 0.45, 0.55, 0.65, 1.2822643998079002, 1, 9.000000,26.000000,1.000000,6.000000,0.500000,1.000000
iLcvR565,200,0, test, 2, 7, 16, 3, 2, 2, 3, 0.55, 0.45, right, 2, 0.35, 0.45, 0.55, 0.65, 0.8942720999475569, 1, 10.000000,27.000000,1.000000,6.000000,0.500000,1.000000
iLcvR565,200,0, test, 2, 7, 17, 3, 2, 3, 2, 0.55, 0.45, left, 1, 0.35, 0.45, 0.55, 0.65, 1.1277846000157297, 0, 10.000000,27.000000,1.000000,6.000000,0.500000,1.000000
iLcvR565,200,0, test, 2, 7, 18, 2, 1, 1, 2, 0.45, 0.35, right, 2, 0.35, 0.45, 0.55, 0.65, 1.0040872001554817, 0, 10.000000,27.000000,1.000000,6.000000,0.500000,1.000000
iLcvR565,200,0, test, 2, 7, 19, 4, 2, 2, 4, 0.65, 0.45, right, 2, 0.35, 0.45, 0.55, 0.65, 1.6454917001537979, 1, 11.000000,28.000000,1.000000,6.000000,0.500000,1.000000
iLcvR565,200,0, test, 2, 7, 20, 4, 3, 3, 4, 0.65, 0.55, right, 2, 0.35, 0.45, 0.55, 0.65, 0.5397707000374794, 0, 11.000000,28.000000,1.000000,6.000000,0.500000,1.000000
iLcvR565,200,0, test, 2, 7, 21, 3, 1, 1, 3, 0.55, 0.35, right, 2, 0.35, 0.45, 0.55, 0.65, 0.9350315998308361, 1, 12.000000,29.000000,1.000000,6.000000,0.500000,1.000000
iLcvR565,200,0, test, 2, 7, 22, 3, 1, 3, 1, 0.55, 0.35, left, 1, 0.35, 0.45, 0.55, 0.65, 0.9797756001353264, 1, 13.000000,30.000000,1.000000,6.000000,0.500000,1.000000
iLcvR565,200,0, test, 2, 7, 23, 3, 1, 1, 3, 0.55, 0.35, right, 2, 0.35, 0.45, 0.55, 0.65, 0.6129574999213219, 0, 13.000000,30.000000,1.000000,6.000000,0.500000,1.000000
iLcvR565,200,0, test, 2, 7, 24, 1, 3, 1, 3, 0.35, 0.55, left, 1, 0.35, 0.45, 0.55, 0.65, 0.5720971000846475, 0, 13.000000,30.000000,1.000000,6.000000,0.500000,1.000000
iLcvR565,200,0, test, 2, 7, 25, 2, 1, 1, 2, 0.45, 0.35, right, 2, 0.35, 0.45, 0.55, 0.65, 0.9459388998802751, 1, 14.000000,31.000000,1.000000,6.000000,0.500000,1.000000
iLcvR565,200,0, test, 3, 1, 1, 2, 1, 1, 2, 0.45, 0.35, right, 2, 0.35, 0.45, 0.55, 0.65, 1.1225829001050442, 1, 1.000000,32.000000,1.000000,6.000000,0.500000,1.000000
iLcvR565,200,0, test, 3, 1, 2, 2, 3, 2, 3, 0.45, 0.55, left, 1, 0.35, 0.45, 0.55, 0.65, 1.8697895999066532, 1, 2.000000,33.000000,1.000000,6.000000,0.500000,1.000000
iLcvR565,200,0, test, 3, 1, 3, 2, 4, 2, 4, 0.45, 0.65, left, 1, 0.35, 0.45, 0.55, 0.65, 0.44870389997959137, 0, 2.000000,33.000000,1.000000,6.000000,0.500000,1.000000
iLcvR565,200,0, test, 3, 1, 4, 4, 2, 2, 4, 0.65, 0.45, right, 2, 0.35, 0.45, 0.55, 0.65, 0.4270750000141561, 1, 3.000000,34.000000,1.000000,6.000000,0.500000,1.000000
iLcvR565,200,0, test, 3, 1, 5, 4, 2, 4, 2, 0.65, 0.45, left, 1, 0.35, 0.45, 0.55, 0.65, 0.8355076001025736, 0, 3.000000,34.000000,1.000000,6.000000,0.500000,1.000000
iLcvR565,200,0, test, 3, 1, 6, 3, 4, 4, 3, 0.55, 0.65, right, 2, 0.35, 0.45, 0.55, 0.65, 1.0611958999652416, 1, 4.000000,35.000000,1.000000,6.000000,0.500000,1.000000
iLcvR565,200,0, test, 3, 1, 7, 2, 1, 2, 1, 0.45, 0.35, left, 1, 0.35, 0.45, 0.55, 0.65, 2.1895482998806983, 1, 5.000000,36.000000,1.000000,6.000000,0.500000,1.000000
iLcvR565,200,0, test, 3, 1, 8, 1, 3, 1, 3, 0.35, 0.55, left, 1, 0.35, 0.45, 0.55, 0.65, 1.81789859989658, 0, 5.000000,36.000000,1.000000,6.000000,0.500000,1.000000
iLcvR565,200,0, test, 3, 1, 9, 4, 1, 4, 1, 0.65, 0.35, left, 1, 0.35, 0.45, 0.55, 0.65, 0.9649406999815255, 1, 6.000000,37.000000,1.000000,6.000000,0.500000,1.000000
iLcvR565,200,0, test, 3, 1, 10, 2, 1, 2, 1, 0.45, 0.35, left, 1, 0.35, 0.45, 0.55, 0.65, 1.7081496000755578, 1, 7.000000,38.000000,1.000000,6.000000,0.500000,1.000000
iLcvR565,200,0, test, 3, 1, 11, 2, 4, 2, 4, 0.45, 0.65, left, 1, 0.35, 0.45, 0.55, 0.65, 1.627672600094229, 0, 7.000000,38.000000,1.000000,6.000000,0.500000,1.000000
iLcvR565,200,0, test, 3, 1, 12, 3, 4, 4, 3, 0.55, 0.65, right, 2, 0.35, 0.45, 0.55, 0.65, 2.2644776001106948, 0, 7.000000,38.000000,1.000000,6.000000,0.500000,1.000000
iLcvR565,200,0, test, 3, 1, 13, 2, 1, 1, 2, 0.45, 0.35, right, 2, 0.35, 0.45, 0.55, 0.65, 1.9827466998249292, 1, 8.000000,39.000000,1.000000,6.000000,0.500000,1.000000
iLcvR565,200,0, test, 3, 1, 14, 1, 4, 4, 1, 0.35, 0.65, right, 2, 0.35, 0.45, 0.55, 0.65, 2.1672008999157697, 0, 8.000000,39.000000,1.000000,6.000000,0.500000,1.000000
iLcvR565,200,0, test, 3, 1, 15, 4, 3, 4, 3, 0.65, 0.55, left, 1, 0.35, 0.45, 0.55, 0.65, 0.9732174999080598, 1, 9.000000,40.000000,1.000000,6.000000,0.500000,1.000000
iLcvR565,200,0, test, 3, 1, 16, 3, 1, 3, 1, 0.55, 0.35, left, 1, 0.35, 0.45, 0.55, 0.65, 5.580321999965236, 1, 10.000000,41.000000,1.000000,6.000000,0.500000,1.000000
iLcvR565,200,0, test, 3, 1, 17, 2, 3, 2, 3, 0.45, 0.55, left, 1, 0.35, 0.45, 0.55, 0.65, 1.3008431000635028, 0, 10.000000,41.000000,1.000000,6.000000,0.500000,1.000000
iLcvR565,200,0, test, 3, 1, 18, 3, 1, 3, 1, 0.55, 0.35, left, 1, 0.35, 0.45, 0.55, 0.65, 0.8380525999236852, 0, 10.000000,41.000000,1.000000,6.000000,0.500000,1.000000
iLcvR565,200,0, test, 3, 1, 19, 4, 3, 4, 3, 0.65, 0.55, left, 1, 0.35, 0.45, 0.55, 0.65, 1.6579992000479251, 1, 11.000000,42.000000,1.000000,6.000000,0.500000,1.000000
iLcvR565,200,0, test, 3, 1, 20, 2, 3, 3, 2, 0.45, 0.55, right, 2, 0.35, 0.45, 0.55, 0.65, 1.0314037001226097, 0, 11.000000,42.000000,1.000000,6.000000,0.500000,1.000000
iLcvR565,200,0, test, 3, 1, 21, 3, 2, 3, 2, 0.55, 0.45, left, 1, 0.35, 0.45, 0.55, 0.65, 2.130506500136107, 0, 11.000000,42.000000,1.000000,6.000000,0.500000,1.000000
iLcvR565,200,0, test, 3, 1, 22, 2, 1, 2, 1, 0.45, 0.35, left, 1, 0.35, 0.45, 0.55, 0.65, 0.5814567999914289, 1, 12.000000,43.000000,1.000000,6.000000,0.500000,1.000000
iLcvR565,200,0, test, 3, 1, 23, 2, 4, 2, 4, 0.45, 0.65, left, 1, 0.35, 0.45, 0.55, 0.65, 0.7073393000755459, 0, 12.000000,43.000000,1.000000,6.000000,0.500000,1.000000
iLcvR565,200,0, test, 3, 1, 24, 1, 2, 2, 1, 0.35, 0.45, right, 2, 0.35, 0.45, 0.55, 0.65, 1.2642959000077099, 1, 13.000000,44.000000,1.000000,6.000000,0.500000,1.000000
iLcvR565,200,0, test, 3, 1, 25, 1, 3, 3, 1, 0.35, 0.55, right, 2, 0.35, 0.45, 0.55, 0.65, 0.7143319000024348, 0, 13.000000,44.000000,1.000000,6.000000,0.500000,1.000000
iLcvR565,200,0, test, 4, 7, 1, 1, 4, 4, 1, 0.35, 0.65, right, 2, 0.35, 0.45, 0.55, 0.65, 1.7364823000971228, 1, 1.000000,45.000000,1.000000,6.000000,0.500000,1.000000
iLcvR565,200,0, test, 4, 7, 2, 3, 4, 3, 4, 0.55, 0.65, left, 1, 0.35, 0.45, 0.55, 0.65, 0.818314400035888, 0, 1.000000,45.000000,1.000000,6.000000,0.500000,1.000000
iLcvR565,200,0, test, 4, 7, 3, 1, 3, 1, 3, 0.35, 0.55, left, 1, 0.35, 0.45, 0.55, 0.65, 0.6949475000146776, 0, 1.000000,45.000000,1.000000,6.000000,0.500000,1.000000
iLcvR565,200,0, test, 4, 7, 4, 4, 3, 4, 3, 0.65, 0.55, left, 1, 0.35, 0.45, 0.55, 0.65, 0.5961564998142421, 1, 2.000000,46.000000,1.000000,6.000000,0.500000,1.000000
iLcvR565,200,0, test, 4, 7, 5, 3, 1, 1, 3, 0.55, 0.35, right, 2, 0.35, 0.45, 0.55, 0.65, 0.9875409998930991, 0, 2.000000,46.000000,1.000000,6.000000,0.500000,1.000000
iLcvR565,200,0, test, 4, 7, 6, 1, 3, 3, 1, 0.35, 0.55, right, 2, 0.35, 0.45, 0.55, 0.65, 0.7542948999907821, 1, 3.000000,47.000000,1.000000,6.000000,0.500000,1.000000
iLcvR565,200,0, test, 4, 7, 7, 4, 3, 4, 3, 0.65, 0.55, left, 1, 0.35, 0.45, 0.55, 0.65, 0.919719299999997, 1, 4.000000,48.000000,1.000000,6.000000,0.500000,1.000000
iLcvR565,200,0, test, 4, 7, 8, 2, 3, 2, 3, 0.45, 0.55, left, 1, 0.35, 0.45, 0.55, 0.65, 0.9322456000372767, 1, 5.000000,49.000000,1.000000,6.000000,0.500000,1.000000
iLcvR565,200,0, test, 4, 7, 9, 4, 1, 1, 4, 0.65, 0.35, right, 2, 0.35, 0.45, 0.55, 0.65, 0.4944295999594033, 1, 6.000000,50.000000,1.000000,6.000000,0.500000,1.000000
iLcvR565,200,0, test, 4, 7, 10, 4, 3, 3, 4, 0.65, 0.55, right, 2, 0.35, 0.45, 0.55, 0.65, 0.49355200002901256, 1, 7.000000,51.000000,1.000000,6.000000,0.500000,1.000000
iLcvR565,200,0, test, 4, 7, 11, 2, 1, 2, 1, 0.45, 0.35, left, 1, 0.35, 0.45, 0.55, 0.65, 1.3377674999646842, 0, 7.000000,51.000000,1.000000,6.000000,0.500000,1.000000
iLcvR565,200,0, test, 4, 7, 12, 1, 3, 1, 3, 0.35, 0.55, left, 1, 0.35, 0.45, 0.55, 0.65, 2.532971699954942, 0, 7.000000,51.000000,1.000000,6.000000,0.500000,1.000000
iLcvR565,200,0, test, 4, 7, 13, 2, 1, 2, 1, 0.45, 0.35, left, 1, 0.35, 0.45, 0.55, 0.65, 2.8284336999058723, 1, 8.000000,52.000000,1.000000,6.000000,0.500000,1.000000
iLcvR565,200,0, test, 4, 7, 14, 4, 3, 4, 3, 0.65, 0.55, left, 1, 0.35, 0.45, 0.55, 0.65, 1.5158315999433398, 1, 9.000000,53.000000,1.000000,6.000000,0.500000,1.000000
iLcvR565,200,0, test, 4, 7, 15, 4, 1, 4, 1, 0.65, 0.35, left, 1, 0.35, 0.45, 0.55, 0.65, 1.123630000045523, 1, 10.000000,54.000000,1.000000,6.000000,0.500000,1.000000
iLcvR565,200,0, test, 4, 7, 16, 4, 2, 4, 2, 0.65, 0.45, left, 1, 0.35, 0.45, 0.55, 0.65, 1.1276253000833094, 1, 11.000000,55.000000,1.000000,6.000000,0.500000,1.000000
iLcvR565,200,0, test, 4, 7, 17, 2, 3, 3, 2, 0.45, 0.55, right, 2, 0.35, 0.45, 0.55, 0.65, 0.9283264998812228, 1, 12.000000,56.000000,1.000000,6.000000,0.500000,1.000000
iLcvR565,200,0, test, 4, 7, 18, 2, 4, 2, 4, 0.45, 0.65, left, 1, 0.35, 0.45, 0.55, 0.65, 2.3327611999120563, 0, 12.000000,56.000000,1.000000,6.000000,0.500000,1.000000
iLcvR565,200,0, test, 4, 7, 19, 4, 2, 4, 2, 0.65, 0.45, left, 1, 0.35, 0.45, 0.55, 0.65, 0.6266248999163508, 0, 12.000000,56.000000,1.000000,6.000000,0.500000,1.000000
iLcvR565,200,0, test, 4, 7, 20, 2, 1, 1, 2, 0.45, 0.35, right, 2, 0.35, 0.45, 0.55, 0.65, 0.5761011000722647, 0, 12.000000,56.000000,1.000000,6.000000,0.500000,1.000000
iLcvR565,200,0, test, 4, 7, 21, 1, 3, 1, 3, 0.35, 0.55, left, 1, 0.35, 0.45, 0.55, 0.65, 1.1051483999472111, 0, 12.000000,56.000000,1.000000,6.000000,0.500000,1.000000
iLcvR565,200,0, test, 4, 7, 22, 4, 3, 4, 3, 0.65, 0.55, left, 1, 0.35, 0.45, 0.55, 0.65, 0.9650985999032855, 1, 13.000000,57.000000,1.000000,6.000000,0.500000,1.000000
iLcvR565,200,0, test, 4, 7, 23, 4, 1, 1, 4, 0.65, 0.35, right, 2, 0.35, 0.45, 0.55, 0.65, 1.3677407999057323, 0, 13.000000,57.000000,1.000000,6.000000,0.500000,1.000000
iLcvR565,200,0, test, 4, 7, 24, 3, 2, 2, 3, 0.55, 0.45, right, 2, 0.35, 0.45, 0.55, 0.65, 0.5543365001212806, 1, 14.000000,58.000000,1.000000,6.000000,0.500000,1.000000
iLcvR565,200,0, test, 4, 7, 25, 3, 2, 3, 2, 0.55, 0.45, left, 1, 0.35, 0.45, 0.55, 0.65, 1.0891988999210298, 0, 14.000000,58.000000,1.000000,6.000000,0.500000,1.000000
iLcvR565,200,0, test, 5, 1, 1, 2, 3, 2, 3, 0.45, 0.55, left, 1, 0.35, 0.45, 0.55, 0.65, 1.4397364999167621, 1, 1.000000,59.000000,1.000000,6.000000,0.500000,1.000000
iLcvR565,200,0, test, 5, 1, 2, 1, 3, 3, 1, 0.35, 0.55, right, 2, 0.35, 0.45, 0.55, 0.65, 0.9044486000202596, 0, 1.000000,59.000000,1.000000,6.000000,0.500000,1.000000
iLcvR565,200,0, test, 5, 1, 3, 2, 1, 2, 1, 0.45, 0.35, left, 1, 0.35, 0.45, 0.55, 0.65, 1.340590100036934, 0, 1.000000,59.000000,1.000000,6.000000,0.500000,1.000000
iLcvR565,200,0, test, 5, 1, 4, 2, 1, 2, 1, 0.45, 0.35, left, 1, 0.35, 0.45, 0.55, 0.65, 1.3829900999553502, 1, 2.000000,60.000000,1.000000,6.000000,0.500000,1.000000
iLcvR565,200,0, test, 5, 1, 5, 1, 2, 1, 2, 0.35, 0.45, left, 1, 0.35, 0.45, 0.55, 0.65, 1.299733400112018, 1, 3.000000,61.000000,1.000000,6.000000,0.500000,1.000000
iLcvR565,200,0, test, 5, 1, 6, 2, 3, 3, 2, 0.45, 0.55, right, 2, 0.35, 0.45, 0.55, 0.65, 0.40966290002688766, 0, 3.000000,61.000000,1.000000,6.000000,0.500000,1.000000
iLcvR565,200,0, test, 5, 1, 7, 3, 1, 1, 3, 0.55, 0.35, right, 2, 0.35, 0.45, 0.55, 0.65, 1.2341296998783946, 1, 4.000000,62.000000,1.000000,6.000000,0.500000,1.000000
iLcvR565,200,0, test, 5, 1, 8, 4, 2, 4, 2, 0.65, 0.45, left, 1, 0.35, 0.45, 0.55, 0.65, 1.0647944998927414, 1, 5.000000,63.000000,1.000000,6.000000,0.500000,1.000000
iLcvR565,200,0, test, 5, 1, 9, 2, 3, 2, 3, 0.45, 0.55, left, 1, 0.35, 0.45, 0.55, 0.65, 5.190971300005913, 0, 5.000000,63.000000,1.000000,6.000000,0.500000,1.000000
iLcvR565,200,0, test, 5, 1, 10, 4, 1, 1, 4, 0.65, 0.35, right, 2, 0.35, 0.45, 0.55, 0.65, 0.8250068998895586, 1, 6.000000,64.000000,1.000000,6.000000,0.500000,1.000000
iLcvR565,200,0, test, 5, 1, 11, 1, 2, 2, 1, 0.35, 0.45, right, 2, 0.35, 0.45, 0.55, 0.65, 1.2562224001158029, 0, 6.000000,64.000000,1.000000,6.000000,0.500000,1.000000
iLcvR565,200,0, test, 5, 1, 12, 4, 1, 4, 1, 0.65, 0.35, left, 1, 0.35, 0.45, 0.55, 0.65, 0.7311031999997795, 1, 7.000000,65.000000,1.000000,6.000000,0.500000,1.000000
iLcvR565,200,0, test, 5, 1, 13, 4, 2, 4, 2, 0.65, 0.45, left, 1, 0.35, 0.45, 0.55, 0.65, 0.6026500000152737, 1, 8.000000,66.000000,1.000000,6.000000,0.500000,1.000000
iLcvR565,200,0, test, 5, 1, 14, 3, 2, 2, 3, 0.55, 0.45, right, 2, 0.35, 0.45, 0.55, 0.65, 0.7861740000080317, 0, 8.000000,66.000000,1.000000,6.000000,0.500000,1.000000
iLcvR565,200,0, test, 5, 1, 15, 4, 1, 4, 1, 0.65, 0.35, left, 1, 0.35, 0.45, 0.55, 0.65, 0.7846592001151294, 1, 9.000000,67.000000,1.000000,6.000000,0.500000,1.000000
iLcvR565,200,0, test, 5, 1, 16, 1, 2, 2, 1, 0.35, 0.45, right, 2, 0.35, 0.45, 0.55, 0.65, 1.5061259001959115, 0, 9.000000,67.000000,1.000000,6.000000,0.500000,1.000000
iLcvR565,200,0, test, 5, 1, 17, 2, 1, 1, 2, 0.45, 0.35, right, 2, 0.35, 0.45, 0.55, 0.65, 0.9176276000216603, 1, 10.000000,68.000000,1.000000,6.000000,0.500000,1.000000
iLcvR565,200,0, test, 5, 1, 18, 1, 2, 1, 2, 0.35, 0.45, left, 1, 0.35, 0.45, 0.55, 0.65, 2.5266631999984384, 0, 10.000000,68.000000,1.000000,6.000000,0.500000,1.000000
iLcvR565,200,0, test, 5, 1, 19, 4, 3, 4, 3, 0.65, 0.55, left, 1, 0.35, 0.45, 0.55, 0.65, 0.8546154999639839, 1, 11.000000,69.000000,1.000000,6.000000,0.500000,1.000000
iLcvR565,200,0, test, 5, 1, 20, 3, 2, 2, 3, 0.55, 0.45, right, 2, 0.35, 0.45, 0.55, 0.65, 0.7488601999357343, 1, 12.000000,70.000000,1.000000,6.000000,0.500000,1.000000
iLcvR565,200,0, test, 5, 1, 21, 2, 1, 1, 2, 0.45, 0.35, right, 2, 0.35, 0.45, 0.55, 0.65, 3.5233819000422955, 0, 12.000000,70.000000,1.000000,6.000000,0.500000,1.000000
iLcvR565,200,0, test, 5, 1, 22, 4, 1, 4, 1, 0.65, 0.35, left, 1, 0.35, 0.45, 0.55, 0.65, 0.8071431000716984, 1, 13.000000,71.000000,1.000000,6.000000,0.500000,1.000000
iLcvR565,200,0, test, 5, 1, 23, 4, 2, 4, 2, 0.65, 0.45, left, 1, 0.35, 0.45, 0.55, 0.65, 0.8121158999856561, 0, 13.000000,71.000000,1.000000,6.000000,0.500000,1.000000
iLcvR565,200,0, test, 5, 1, 24, 4, 3, 3, 4, 0.65, 0.55, right, 2, 0.35, 0.45, 0.55, 0.65, 0.9293351001106203, 1, 14.000000,72.000000,1.000000,6.000000,0.500000,1.000000
iLcvR565,200,0, test, 5, 1, 25, 2, 1, 1, 2, 0.45, 0.35, right, 2, 0.35, 0.45, 0.55, 0.65, 0.8995008999481797, 0, 14.000000,72.000000,1.000000,6.000000,0.500000,1.000000
iLcvR565,200,0, test, 6, 7, 1, 4, 1, 1, 4, 0.65, 0.35, right, 2, 0.35, 0.45, 0.55, 0.65, 0.6156320001464337, 1, 1.000000,73.000000,1.000000,6.000000,0.500000,1.000000
iLcvR565,200,0, test, 6, 7, 2, 4, 1, 4, 1, 0.65, 0.35, left, 1, 0.35, 0.45, 0.55, 0.65, 1.1757372000720352, 0, 1.000000,73.000000,1.000000,6.000000,0.500000,1.000000
iLcvR565,200,0, test, 6, 7, 3, 1, 4, 4, 1, 0.35, 0.65, right, 2, 0.35, 0.45, 0.55, 0.65, 0.8854926000349224, 0, 1.000000,73.000000,1.000000,6.000000,0.500000,1.000000
iLcvR565,200,0, test, 6, 7, 4, 3, 1, 3, 1, 0.55, 0.35, left, 1, 0.35, 0.45, 0.55, 0.65, 1.3586345000658184, 0, 1.000000,73.000000,1.000000,6.000000,0.500000,1.000000
iLcvR565,200,0, test, 6, 7, 5, 2, 1, 2, 1, 0.45, 0.35, left, 1, 0.35, 0.45, 0.55, 0.65, 0.7060783999040723, 0, 1.000000,73.000000,1.000000,6.000000,0.500000,1.000000
iLcvR565,200,0, test, 6, 7, 6, 3, 2, 3, 2, 0.55, 0.45, left, 1, 0.35, 0.45, 0.55, 0.65, 1.7469685999676585, 1, 2.000000,74.000000,1.000000,6.000000,0.500000,1.000000
iLcvR565,200,0, test, 6, 7, 7, 1, 3, 1, 3, 0.35, 0.55, left, 1, 0.35, 0.45, 0.55, 0.65, 2.6176756999921054, 0, 2.000000,74.000000,1.000000,6.000000,0.500000,1.000000
iLcvR565,200,0, test, 6, 7, 8, 4, 3, 4, 3, 0.65, 0.55, left, 1, 0.35, 0.45, 0.55, 0.65, 0.6421187000814825, 1, 3.000000,75.000000,1.000000,6.000000,0.500000,1.000000
iLcvR565,200,0, test, 6, 7, 9, 1, 2, 2, 1, 0.35, 0.45, right, 2, 0.35, 0.45, 0.55, 0.65, 2.228996300138533, 1, 4.000000,76.000000,1.000000,6.000000,0.500000,1.000000
iLcvR565,200,0, test, 6, 7, 10, 1, 3, 3, 1, 0.35, 0.55, right, 2, 0.35, 0.45, 0.55, 0.65, 1.0163726001046598, 0, 4.000000,76.000000,1.000000,6.000000,0.500000,1.000000
iLcvR565,200,0, test, 6, 7, 11, 2, 1, 2, 1, 0.45, 0.35, left, 1, 0.35, 0.45, 0.55, 0.65, 0.6244421000592411, 0, 4.000000,76.000000,1.000000,6.000000,0.500000,1.000000
iLcvR565,200,0, test, 6, 7, 12, 3, 1, 1, 3, 0.55, 0.35, right, 2, 0.35, 0.45, 0.55, 0.65, 0.8123538999352604, 0, 4.000000,76.000000,1.000000,6.000000,0.500000,1.000000
iLcvR565,200,0, test, 6, 7, 13, 4, 2, 2, 4, 0.65, 0.45, right, 2, 0.35, 0.45, 0.55, 0.65, 0.8523395999800414, 1, 5.000000,77.000000,1.000000,6.000000,0.500000,1.000000
iLcvR565,200,0, test, 6, 7, 14, 4, 1, 1, 4, 0.65, 0.35, right, 2, 0.35, 0.45, 0.55, 0.65, 0.7698458998929709, 1, 6.000000,78.000000,1.000000,6.000000,0.500000,1.000000
iLcvR565,200,0, test, 6, 7, 15, 4, 1, 1, 4, 0.65, 0.35, right, 2, 0.35, 0.45, 0.55, 0.65, 0.3806744001340121, 1, 7.000000,79.000000,1.000000,6.000000,0.500000,1.000000
iLcvR565,200,0, test, 6, 7, 16, 2, 1, 1, 2, 0.45, 0.35, right, 2, 0.35, 0.45, 0.55, 0.65, 1.1688945998903364, 1, 8.000000,80.000000,1.000000,6.000000,0.500000,1.000000
iLcvR565,200,0, test, 6, 7, 17, 2, 3, 3, 2, 0.45, 0.55, right, 2, 0.35, 0.45, 0.55, 0.65, 0.41913799988105893, 1, 9.000000,81.000000,1.000000,6.000000,0.500000,1.000000
iLcvR565,200,0, test, 6, 7, 18, 4, 1, 4, 1, 0.65, 0.35, left, 1, 0.35, 0.45, 0.55, 0.65, 0.6787747000344098, 0, 9.000000,81.000000,1.000000,6.000000,0.500000,1.000000
iLcvR565,200,0, test, 6, 7, 19, 2, 1, 2, 1, 0.45, 0.35, left, 1, 0.35, 0.45, 0.55, 0.65, 0.8378715999424458, 1, 10.000000,82.000000,1.000000,6.000000,0.500000,1.000000
iLcvR565,200,0, test, 6, 7, 20, 1, 3, 3, 1, 0.35, 0.55, right, 2, 0.35, 0.45, 0.55, 0.65, 0.6603838000446558, 0, 10.000000,82.000000,1.000000,6.000000,0.500000,1.000000
iLcvR565,200,0, test, 6, 7, 21, 2, 3, 3, 2, 0.45, 0.55, right, 2, 0.35, 0.45, 0.55, 0.65, 0.9561026999726892, 1, 11.000000,83.000000,1.000000,6.000000,0.500000,1.000000
iLcvR565,200,0, test, 6, 7, 22, 2, 3, 3, 2, 0.45, 0.55, right, 2, 0.35, 0.45, 0.55, 0.65, 0.646768000209704, 0, 11.000000,83.000000,1.000000,6.000000,0.500000,1.000000
iLcvR565,200,0, test, 6, 7, 23, 3, 1, 1, 3, 0.55, 0.35, right, 2, 0.35, 0.45, 0.55, 0.65, 1.9054104001261294, 0, 11.000000,83.000000,1.000000,6.000000,0.500000,1.000000
iLcvR565,200,0, test, 6, 7, 24, 4, 2, 4, 2, 0.65, 0.45, left, 1, 0.35, 0.45, 0.55, 0.65, 0.6623235000297427, 1, 12.000000,84.000000,1.000000,6.000000,0.500000,1.000000
iLcvR565,200,0, test, 6, 7, 25, 4, 2, 4, 2, 0.65, 0.45, left, 1, 0.35, 0.45, 0.55, 0.65, 0.4586083001922816, 1, 13.000000,85.000000,1.000000,6.000000,0.500000,1.000000
iLcvR565,200,0, test, 7, 1, 1, 3, 1, 1, 3, 0.55, 0.35, right, 2, 0.35, 0.45, 0.55, 0.65, 0.9937448999844491, 1, 1.000000,86.000000,1.000000,6.000000,0.500000,1.000000
iLcvR565,200,0, test, 7, 1, 2, 4, 1, 4, 1, 0.65, 0.35, left, 1, 0.35, 0.45, 0.55, 0.65, 0.5153051998931915, 1, 2.000000,87.000000,1.000000,6.000000,0.500000,1.000000
iLcvR565,200,0, test, 7, 1, 3, 1, 4, 4, 1, 0.35, 0.65, right, 2, 0.35, 0.45, 0.55, 0.65, 0.9513318000826985, 0, 2.000000,87.000000,1.000000,6.000000,0.500000,1.000000
iLcvR565,200,0, test, 7, 1, 4, 4, 1, 4, 1, 0.65, 0.35, left, 1, 0.35, 0.45, 0.55, 0.65, 0.31756370002403855, 1, 3.000000,88.000000,1.000000,6.000000,0.500000,1.000000
iLcvR565,200,0, test, 7, 1, 5, 2, 1, 1, 2, 0.45, 0.35, right, 2, 0.35, 0.45, 0.55, 0.65, 0.9164837000425905, 0, 3.000000,88.000000,1.000000,6.000000,0.500000,1.000000
iLcvR565,200,0, test, 7, 1, 6, 3, 1, 1, 3, 0.55, 0.35, right, 2, 0.35, 0.45, 0.55, 0.65, 0.7137957999948412, 0, 3.000000,88.000000,1.000000,6.000000,0.500000,1.000000
iLcvR565,200,0, test, 7, 1, 7, 3, 1, 1, 3, 0.55, 0.35, right, 2, 0.35, 0.45, 0.55, 0.65, 0.7059675001073629, 0, 3.000000,88.000000,1.000000,6.000000,0.500000,1.000000
iLcvR565,200,0, test, 7, 1, 8, 2, 3, 2, 3, 0.45, 0.55, left, 1, 0.35, 0.45, 0.55, 0.65, 0.8980759000405669, 1, 4.000000,89.000000,1.000000,6.000000,0.500000,1.000000
iLcvR565,200,0, test, 7, 1, 9, 4, 1, 4, 1, 0.65, 0.35, left, 1, 0.35, 0.45, 0.55, 0.65, 0.5388122999574989, 0, 4.000000,89.000000,1.000000,6.000000,0.500000,1.000000
iLcvR565,200,0, test, 7, 1, 10, 1, 2, 1, 2, 0.35, 0.45, left, 1, 0.35, 0.45, 0.55, 0.65, 0.8174947001971304, 1, 5.000000,90.000000,1.000000,6.000000,0.500000,1.000000
iLcvR565,200,0, test, 7, 1, 11, 1, 4, 4, 1, 0.35, 0.65, right, 2, 0.35, 0.45, 0.55, 0.65, 1.218735900009051, 0, 5.000000,90.000000,1.000000,6.000000,0.500000,1.000000
iLcvR565,200,0, test, 7, 1, 12, 4, 3, 4, 3, 0.65, 0.55, left, 1, 0.35, 0.45, 0.55, 0.65, 0.8827198999933898, 0, 5.000000,90.000000,1.000000,6.000000,0.500000,1.000000
iLcvR565,200,0, test, 7, 1, 13, 2, 4, 4, 2, 0.45, 0.65, right, 2, 0.35, 0.45, 0.55, 0.65, 0.590933500090614, 0, 5.000000,90.000000,1.000000,6.000000,0.500000,1.000000
iLcvR565,200,0, test, 7, 1, 14, 3, 4, 4, 3, 0.55, 0.65, right, 2, 0.35, 0.45, 0.55, 0.65, 1.0402873998973519, 0, 5.000000,90.000000,1.000000,6.000000,0.500000,1.000000
iLcvR565,200,0, test, 7, 1, 15, 2, 4, 2, 4, 0.45, 0.65, left, 1, 0.35, 0.45, 0.55, 0.65, 0.7952292999252677, 1, 6.000000,91.000000,1.000000,6.000000,0.500000,1.000000
iLcvR565,200,0, test, 7, 1, 16, 2, 3, 3, 2, 0.45, 0.55, right, 2, 0.35, 0.45, 0.55, 0.65, 0.7934155999682844, 1, 7.000000,92.000000,1.000000,6.000000,0.500000,1.000000
iLcvR565,200,0, test, 7, 1, 17, 1, 3, 3, 1, 0.35, 0.55, right, 2, 0.35, 0.45, 0.55, 0.65, 3.7575089000165462, 0, 7.000000,92.000000,1.000000,6.000000,0.500000,1.000000
iLcvR565,200,0, test, 7, 1, 18, 1, 3, 1, 3, 0.35, 0.55, left, 1, 0.35, 0.45, 0.55, 0.65, 1.1687924999278039, 0, 7.000000,92.000000,1.000000,6.000000,0.500000,1.000000
iLcvR565,200,0, test, 7, 1, 19, 3, 1, 3, 1, 0.55, 0.35, left, 1, 0.35, 0.45, 0.55, 0.65, 0.6140668999869376, 0, 7.000000,92.000000,1.000000,6.000000,0.500000,1.000000
iLcvR565,200,0, test, 7, 1, 20, 2, 1, 1, 2, 0.45, 0.35, right, 2, 0.35, 0.45, 0.55, 0.65, 1.2866001999936998, 1, 8.000000,93.000000,1.000000,6.000000,0.500000,1.000000
iLcvR565,200,0, test, 7, 1, 21, 2, 4, 4, 2, 0.45, 0.65, right, 2, 0.35, 0.45, 0.55, 0.65, 0.4718204000964761, 1, 9.000000,94.000000,1.000000,6.000000,0.500000,1.000000
iLcvR565,200,0, test, 7, 1, 22, 2, 4, 2, 4, 0.45, 0.65, left, 1, 0.35, 0.45, 0.55, 0.65, 1.0298289000056684, 0, 9.000000,94.000000,1.000000,6.000000,0.500000,1.000000
iLcvR565,200,0, test, 7, 1, 23, 2, 4, 2, 4, 0.45, 0.65, left, 1, 0.35, 0.45, 0.55, 0.65, 1.5778755999635905, 0, 9.000000,94.000000,1.000000,6.000000,0.500000,1.000000
iLcvR565,200,0, test, 7, 1, 24, 4, 3, 3, 4, 0.65, 0.55, right, 2, 0.35, 0.45, 0.55, 0.65, 0.48778280010446906, 0, 9.000000,94.000000,1.000000,6.000000,0.500000,1.000000
iLcvR565,200,0, test, 7, 1, 25, 2, 4, 2, 4, 0.45, 0.65, left, 1, 0.35, 0.45, 0.55, 0.65, 0.49159059999510646, 0, 9.000000,94.000000,1.000000,6.000000,0.500000,1.000000
iLcvR565,200,0, test, 8, 7, 1, 2, 4, 2, 4, 0.45, 0.65, left, 1, 0.35, 0.45, 0.55, 0.65, 0.6124669001437724, 1, 1.000000,95.000000,1.000000,6.000000,0.500000,1.000000
iLcvR565,200,0, test, 8, 7, 2, 4, 1, 1, 4, 0.65, 0.35, right, 2, 0.35, 0.45, 0.55, 0.65, 1.6486364000011235, 1, 2.000000,96.000000,1.000000,6.000000,0.500000,1.000000
iLcvR565,200,0, test, 8, 7, 3, 1, 3, 1, 3, 0.35, 0.55, left, 1, 0.35, 0.45, 0.55, 0.65, 3.8098174000624567, 0, 2.000000,96.000000,1.000000,6.000000,0.500000,1.000000
iLcvR565,200,0, test, 8, 7, 4, 4, 2, 2, 4, 0.65, 0.45, right, 2, 0.35, 0.45, 0.55, 0.65, 3.4549283999949694, 1, 3.000000,97.000000,1.000000,6.000000,0.500000,1.000000
iLcvR565,200,0, test, 8, 7, 5, 4, 1, 4, 1, 0.65, 0.35, left, 1, 0.35, 0.45, 0.55, 0.65, 0.5333766001276672, 1, 4.000000,98.000000,1.000000,6.000000,0.500000,1.000000
iLcvR565,200,0, test, 8, 7, 6, 4, 1, 1, 4, 0.65, 0.35, right, 2, 0.35, 0.45, 0.55, 0.65, 0.49518229998648167, 1, 5.000000,99.000000,1.000000,6.000000,0.500000,1.000000
iLcvR565,200,0, test, 8, 7, 7, 2, 3, 3, 2, 0.45, 0.55, right, 2, 0.35, 0.45, 0.55, 0.65, 3.254454200156033, 1, 6.000000,100.000000,1.000000,6.000000,0.500000,1.000000
iLcvR565,200,0, test, 8, 7, 8, 3, 2, 3, 2, 0.55, 0.45, left, 1, 0.35, 0.45, 0.55, 0.65, 1.9887192000169307, 1, 7.000000,101.000000,1.000000,6.000000,0.500000,1.000000
iLcvR565,200,0, test, 8, 7, 9, 4, 2, 2, 4, 0.65, 0.45, right, 2, 0.35, 0.45, 0.55, 0.65, 1.3099006998818368, 0, 7.000000,101.000000,1.000000,6.000000,0.500000,1.000000
iLcvR565,200,0, test, 8, 7, 10, 4, 2, 2, 4, 0.65, 0.45, right, 2, 0.35, 0.45, 0.55, 0.65, 2.9523962000384927, 1, 8.000000,102.000000,1.000000,6.000000,0.500000,1.000000
iLcvR565,200,0, test, 8, 7, 11, 4, 3, 3, 4, 0.65, 0.55, right, 2, 0.35, 0.45, 0.55, 0.65, 0.8041405000258237, 0, 8.000000,102.000000,1.000000,6.000000,0.500000,1.000000
iLcvR565,200,0, test, 8, 7, 12, 4, 1, 4, 1, 0.65, 0.35, left, 1, 0.35, 0.45, 0.55, 0.65, 0.43008990003727376, 1, 9.000000,103.000000,1.000000,6.000000,0.500000,1.000000
iLcvR565,200,0, test, 8, 7, 13, 3, 1, 1, 3, 0.55, 0.35, right, 2, 0.35, 0.45, 0.55, 0.65, 1.0205296999774873, 0, 9.000000,103.000000,1.000000,6.000000,0.500000,1.000000
iLcvR565,200,0, test, 8, 7, 14, 3, 2, 2, 3, 0.55, 0.45, right, 2, 0.35, 0.45, 0.55, 0.65, 2.3009247998706996, 1, 10.000000,104.000000,1.000000,6.000000,0.500000,1.000000
iLcvR565,200,0, test, 8, 7, 15, 3, 4, 4, 3, 0.55, 0.65, right, 2, 0.35, 0.45, 0.55, 0.65, 2.6815961999818683, 0, 10.000000,104.000000,1.000000,6.000000,0.500000,1.000000
iLcvR565,200,0, test, 8, 7, 16, 1, 3, 1, 3, 0.35, 0.55, left, 1, 0.35, 0.45, 0.55, 0.65, 1.1858432001899928, 0, 10.000000,104.000000,1.000000,6.000000,0.500000,1.000000
iLcvR565,200,0, test, 8, 7, 17, 3, 2, 3, 2, 0.55, 0.45, left, 1, 0.35, 0.45, 0.55, 0.65, 0.6601825000252575, 0, 10.000000,104.000000,1.000000,6.000000,0.500000,1.000000
iLcvR565,200,0, test, 8, 7, 18, 4, 3, 4, 3, 0.65, 0.55, left, 1, 0.35, 0.45, 0.55, 0.65, 0.9942167999688536, 0, 10.000000,104.000000,1.000000,6.000000,0.500000,1.000000
iLcvR565,200,0, test, 8, 7, 19, 3, 4, 4, 3, 0.55, 0.65, right, 2, 0.35, 0.45, 0.55, 0.65, 1.1881351999472827, 1, 11.000000,105.000000,1.000000,6.000000,0.500000,1.000000
iLcvR565,200,0, test, 8, 7, 20, 3, 4, 3, 4, 0.55, 0.65, left, 1, 0.35, 0.45, 0.55, 0.65, 0.5242637998890132, 1, 12.000000,106.000000,1.000000,6.000000,0.500000,1.000000
iLcvR565,200,0, test, 8, 7, 21, 4, 2, 2, 4, 0.65, 0.45, right, 2, 0.35, 0.45, 0.55, 0.65, 0.9257451000157744, 0, 12.000000,106.000000,1.000000,6.000000,0.500000,1.000000
iLcvR565,200,0, test, 8, 7, 22, 3, 1, 1, 3, 0.55, 0.35, right, 2, 0.35, 0.45, 0.55, 0.65, 1.6161472999956459, 1, 13.000000,107.000000,1.000000,6.000000,0.500000,1.000000
iLcvR565,200,0, test, 8, 7, 23
iLcvR565,200,0, test, 8, 7, 24, 3, 2, 3, 2, 0.55, 0.45, left, 1, 0.35, 0.45, 0.55, 0.65, 0.5535550001077354, 1, 14.000000,108.000000,1.000000,6.000000,0.500000,1.000000
iLcvR565,200,0, test, 8, 7, 25, 3, 4, 4, 3, 0.55, 0.65, right, 2, 0.35, 0.45, 0.55, 0.65, 0.3372157998383045, 1, 15.000000,109.000000,1.000000,6.000000,0.500000,1.000000
