ShaharID, group, counterbalance, block_type, block, delay_condition, trial, chosen, unchosen, offer_left_image, offer_right_image, exp_value_chosen, exp_value_unchosen, choice_location, choice_key, exp_value1, exp_value2, exp_value3, exp_value4, RT, reward, coins_per_block, coins_per_task,ITI_duration,rt_deadline,choice_feedback_duration,outcome_duration
z0LrlWaU,200,1, practice, 1, 1, 1, 1, 3, 1, 3, 0.35, 0.55, left, 1, 0.35, 0.45, 0.55, 0.65, 1.3970834000501782, 1, 1.000000,1.000000,1.000000,6.000000,0.500000,1.000000
z0LrlWaU,200,1, practice, 1, 1, 2, 4, 3, 3, 4, 0.65, 0.55, right, 2, 0.35, 0.45, 0.55, 0.65, 1.661828099982813, 0, 1.000000,1.000000,1.000000,6.000000,0.500000,1.000000
z0LrlWaU,200,1, practice, 1, 1, 3, 3, 4, 3, 4, 0.55, 0.65, left, 1, 0.35, 0.45, 0.55, 0.65, 1.2882173000834882, 1, 2.000000,2.000000,1.000000,6.000000,0.500000,1.000000
z0LrlWaU,200,1, practice, 1, 1, 4, 1, 2, 2, 1, 0.35, 0.45, right, 2, 0.35, 0.45, 0.55, 0.65, 0.8375363000668585, 1, 3.000000,3.000000,1.000000,6.000000,0.500000,1.000000
z0LrlWaU,200,1, practice, 1, 1, 5, 1, 2, 2, 1, 0.35, 0.45, right, 2, 0.35, 0.45, 0.55, 0.65, 0.7929597001057118, 0, 3.000000,3.000000,1.000000,6.000000,0.500000,1.000000
z0LrlWaU,200,1, test, 1, 7, 1, 1, 2, 1, 2, 0.35, 0.45, left, 1, 0.35, 0.45, 0.55, 0.65, 0.9354802998714149, 0, 0.000000,3.000000,1.000000,6.000000,0.500000,1.000000
z0LrlWaU,200,1, test, 1, 7, 2, 4, 2, 2, 4, 0.65, 0.45, right, 2, 0.35, 0.45, 0.55, 0.65, 1.3188621001318097, 1, 1.000000,4.000000,1.000000,6.000000,0.500000,1.000000
z0LrlWaU,200,1, test, 1, 7, 3, 3, 1, 1, 3, 0.55, 0.35, right, 2, 0.35, 0.45, 0.55, 0.65, 1.3519460000097752, 0, 1.000000,4.000000,1.000000,6.000000,0.500000,1.000000
z0LrlWaU,200,1, test, 1, 7, 4, 4, 1, 1, 4, 0.65, 0.35, right, 2, 0.35, 0.45, 0.55, 0.65, 0.8054254001472145, 0, 1.000000,4.000000,1.000000,6.000000,0.500000,1.000000
z0LrlWaU,200,1, test, 1, 7, 5, 2, 3, 3, 2, 0.45, 0.55, right, 2, 0.35, 0.45, 0.55, 0.65, 1.3514119000174105, 0, 1.000000,4.000000,1.000000,6.000000,0.500000,1.000000
z0LrlWaU,200,1, test, 1, 7, 6, 1, 3, 3, 1, 0.35, 0.55, right, 2, 0.35, 0.45, 0.55, 0.65, 1.4263445001561195, 0, 1.000000,4.000000,1.000000,6.000000,0.500000,1.000000
z0LrlWaU,200,1, test, 1, 7, 7, 4, 1, 1, 4, 0.65, 0.35, right, 2, 0.35, 0.45, 0.55, 0.65, 0.5166428000666201, 1, 2.000000,5.000000,1.000000,6.000000,0.500000,1.000000
z0LrlWaU,200,1, test, 1, 7, 8, 4, 3, 3, 4, 0.65, 0.55, right, 2, 0.35, 0.45, 0.55, 0.65, 0.5619530000258237, 1, 3.000000,6.000000,1.000000,6.000000,0.500000,1.000000
z0LrlWaU,200,1, test, 1, 7, 9, 2, 3, 2, 3, 0.45, 0.55, left, 1, 0.35, 0.45, 0.55, 0.65, 1.2595345999579877, 1, 4.000000,7.000000,1.000000,6.000000,0.500000,1.000000
z0LrlWaU,200,1, test, 1, 7, 10, 4, 3, 4, 3, 0.65, 0.55, left, 1, 0.35, 0.45, 0.55, 0.65, 0.9029071000404656, 0, 4.000000,7.000000,1.000000,6.000000,0.500000,1.000000
z0LrlWaU,200,1, test, 1, 7, 11, 4, 3, 4, 3, 0.65, 0.55, left, 1, 0.35, 0.45, 0.55, 0.65, 0.5138437000568956, 0, 4.000000,7.000000,1.000000,6.000000,0.500000,1.000000
z0LrlWaU,200,1, test, 1, 7, 12, 3, 1, 3, 1, 0.55, 0.35, left, 1, 0.35, 0.45, 0.55, 0.65, 1.0630642999894917, 1, 5.000000,8.000000,1.000000,6.000000,0.500000,1.000000
z0LrlWaU,200,1, test, 1, 7, 13, 3, 1, 1, 3, 0.55, 0.35, right, 2, 0.35, 0.45, 0.55, 0.65, 0.6613030999433249, 1, 6.000000,9.000000,1.000000,6.000000,0.500000,1.000000
z0LrlWaU,200,1, test, 1, 7, 14, 3, 4, 3, 4, 0.55, 0.65, left, 1, 0.35, 0.45, 0.55, 0.65, 0.3029370999429375, 0, 6.000000,9.000000,1.000000,6.000000,0.500000,1.000000
z0LrlWaU,200,1, test, 1, 7, 15, 4, 2, 2, 4, 0.65, 0.45, right, 2, 0.35, 0.45, 0.55, 0.65, 0.4195584000553936, 0, 6.000000,9.000000,1.000000,6.000000,0.500000,1.000000
z0LrlWaU,200,1, test, 1, 7, 16, 3, 1, 1, 3, 0.55, 0.35, right, 2, 0.35, 0.45, 0.55, 0.65, 0.9432274999562651, 0, 6.000000,9.000000,1.000000,6.000000,0.500000,1.000000
z0LrlWaU,200,1, test, 1, 7, 17, 2, 3, 2, 3, 0.45, 0.55, left, 1, 0.35, 0.45, 0.55, 0.65, 0.911975699942559, 1, 7.000000,10.000000,1.000000,6.000000,0.500000,1.000000
z0LrlWaU,200,1, test, 1, 7, 18, 2, 4, 4, 2, 0.45, 0.65, right, 2, 0.35, 0.45, 0.55, 0.65, 0.36643260018900037, 0, 7.000000,10.000000,1.000000,6.000000,0.500000,1.000000
z0LrlWaU,200,1, test, 1, 7, 19, 4, 3, 3, 4, 0.65, 0.55, right, 2, 0.35, 0.45, 0.55, 0.65, 0.6460665001068264, 0, 7.000000,10.000000,1.000000,6.000000,0.500000,1.000000
z0LrlWaU,200,1, test, 1, 7, 20, 4, 2, 4, 2, 0.65, 0.45, left, 1, 0.35, 0.45, 0.55, 0.65, 0.4671394999604672, 1, 8.000000,11.000000,1.000000,6.000000,0.500000,1.000000
z0LrlWaU,200,1, test, 1, 7, 21, 2, 1, 2, 1, 0.45, 0.35, left, 1, 0.35, 0.45, 0.55, 0.65, 1.032886300003156, 0, 8.000000,11.000000,1.000000,6.000000,0.500000,1.000000
z0LrlWaU,200,1, test, 1, 7, 22, 3, 1, 3, 1, 0.55, 0.35, left, 1, 0.35, 0.45, 0.55, 0.65, 1.1560683997813612, 1, 9.000000,12.000000,1.000000,6.000000,0.500000,1.000000
z0LrlWaU,200,1, test, 1, 7, 23, 4, 3, 4, 3, 0.65, 0.55, left, 1, 0.35, 0.45, 0.55, 0.65, 0.9111438000109047, 0, 9.000000,12.000000,1.000000,6.000000,0.500000,1.000000
z0LrlWaU,200,1, test, 1, 7, 24, 4, 2, 4, 2, 0.65, 0.45, left, 1, 0.35, 0.45, 0.55, 0.65, 0.38038300001062453, 1, 10.000000,13.000000,1.000000,6.000000,0.500000,1.000000
z0LrlWaU,200,1, test, 1, 7, 25, 3, 2, 2, 3, 0.55, 0.45, right, 2, 0.35, 0.45, 0.55, 0.65, 0.8771500000730157, 0, 10.000000,13.000000,1.000000,6.000000,0.500000,1.000000
z0LrlWaU,200,1, test, 2, 1, 1, 1, 2, 2, 1, 0.35, 0.45, right, 2, 0.35, 0.45, 0.55, 0.65, 0.8353957000654191, 0, 0.000000,13.000000,1.000000,6.000000,0.500000,1.000000
z0LrlWaU,200,1, test, 2, 1, 2, 4, 2, 2, 4, 0.65, 0.45, right, 2, 0.35, 0.45, 0.55, 0.65, 1.711257299873978, 1, 1.000000,14.000000,1.000000,6.000000,0.500000,1.000000
z0LrlWaU,200,1, test, 2, 1, 3, 4, 3, 3, 4, 0.65, 0.55, right, 2, 0.35, 0.45, 0.55, 0.65, 0.7567448001354933, 1, 2.000000,15.000000,1.000000,6.000000,0.500000,1.000000
z0LrlWaU,200,1, test, 2, 1, 4, 4, 1, 1, 4, 0.65, 0.35, right, 2, 0.35, 0.45, 0.55, 0.65, 0.39469049987383187, 0, 2.000000,15.000000,1.000000,6.000000,0.500000,1.000000
z0LrlWaU,200,1, test, 2, 1, 5, 4, 1, 1, 4, 0.65, 0.35, right, 2, 0.35, 0.45, 0.55, 0.65, 0.34839350008405745, 1, 3.000000,16.000000,1.000000,6.000000,0.500000,1.000000
z0LrlWaU,200,1, test, 2, 1, 6, 1, 2, 1, 2, 0.35, 0.45, left, 1, 0.35, 0.45, 0.55, 0.65, 1.795808200025931, 1, 4.000000,17.000000,1.000000,6.000000,0.500000,1.000000
z0LrlWaU,200,1, test, 2, 1, 7, 4, 1, 1, 4, 0.65, 0.35, right, 2, 0.35, 0.45, 0.55, 0.65, 0.8225965001620352, 0, 4.000000,17.000000,1.000000,6.000000,0.500000,1.000000
z0LrlWaU,200,1, test, 2, 1, 8, 3, 1, 3, 1, 0.55, 0.35, left, 1, 0.35, 0.45, 0.55, 0.65, 1.1035007999744266, 0, 4.000000,17.000000,1.000000,6.000000,0.500000,1.000000
z0LrlWaU,200,1, test, 2, 1, 9, 1, 2, 1, 2, 0.35, 0.45, left, 1, 0.35, 0.45, 0.55, 0.65, 0.9925228001084179, 1, 5.000000,18.000000,1.000000,6.000000,0.500000,1.000000
z0LrlWaU,200,1, test, 2, 1, 10, 3, 2, 2, 3, 0.55, 0.45, right, 2, 0.35, 0.45, 0.55, 0.65, 1.4888834999874234, 1, 6.000000,19.000000,1.000000,6.000000,0.500000,1.000000
z0LrlWaU,200,1, test, 2, 1, 11, 4, 3, 3, 4, 0.65, 0.55, right, 2, 0.35, 0.45, 0.55, 0.65, 1.0033842001575977, 1, 7.000000,20.000000,1.000000,6.000000,0.500000,1.000000
z0LrlWaU,200,1, test, 2, 1, 12, 3, 1, 1, 3, 0.55, 0.35, right, 2, 0.35, 0.45, 0.55, 0.65, 1.3148201999720186, 0, 7.000000,20.000000,1.000000,6.000000,0.500000,1.000000
z0LrlWaU,200,1, test, 2, 1, 13, 1, 3, 1, 3, 0.35, 0.55, left, 1, 0.35, 0.45, 0.55, 0.65, 1.118884699884802, 0, 7.000000,20.000000,1.000000,6.000000,0.500000,1.000000
z0LrlWaU,200,1, test, 2, 1, 14, 1, 3, 1, 3, 0.35, 0.55, left, 1, 0.35, 0.45, 0.55, 0.65, 0.4308539000339806, 0, 7.000000,20.000000,1.000000,6.000000,0.500000,1.000000
z0LrlWaU,200,1, test, 2, 1, 15, 1, 3, 3, 1, 0.35, 0.55, right, 2, 0.35, 0.45, 0.55, 0.65, 1.486245600041002, 0, 7.000000,20.000000,1.000000,6.000000,0.500000,1.000000
z0LrlWaU,200,1, test, 2, 1, 16, 4, 2, 2, 4, 0.65, 0.45, right, 2, 0.35, 0.45, 0.55, 0.65, 0.7954434000421315, 1, 8.000000,21.000000,1.000000,6.000000,0.500000,1.000000
z0LrlWaU,200,1, test, 2, 1, 17, 3, 2, 3, 2, 0.55, 0.45, left, 1, 0.35, 0.45, 0.55, 0.65, 1.2682205999735743, 0, 8.000000,21.000000,1.000000,6.000000,0.500000,1.000000
z0LrlWaU,200,1, test, 2, 1, 18, 2, 3, 3, 2, 0.45, 0.55, right, 2, 0.35, 0.45, 0.55, 0.65, 0.5706267000641674, 0, 8.000000,21.000000,1.000000,6.000000,0.500000,1.000000
z0LrlWaU,200,1, test, 2, 1, 19, 4, 2, 4, 2, 0.65, 0.45, left, 1, 0.35, 0.45, 0.55, 0.65, 0.6855427999980748, 1, 9.000000,22.000000,1.000000,6.000000,0.500000,1.000000
z0LrlWaU,200,1, test, 2, 1, 20, 4, 3, 4, 3, 0.65, 0.55, left, 1, 0.35, 0.45, 0.55, 0.65, 0.3540958999656141, 1, 10.000000,23.000000,1.000000,6.000000,0.500000,1.000000
z0LrlWaU,200,1, test, 2, 1, 21, 4, 3, 3, 4, 0.65, 0.55, right, 2, 0.35, 0.45, 0.55, 0.65, 0.4002525999676436, 1, 11.000000,24.000000,1.000000,6.000000,0.500000,1.000000
z0LrlWaU,200,1, test, 2, 1, 22, 4, 3, 3, 4, 0.65, 0.55, right, 2, 0.35, 0.45, 0.55, 0.65, 0.35425620013847947, 0, 11.000000,24.000000,1.000000,6.000000,0.500000,1.000000
z0LrlWaU,200,1, test, 2, 1, 23, 2, 3, 2, 3, 0.45, 0.55, left, 1, 0.35, 0.45, 0.55, 0.65, 1.5968557000160217, 1, 12.000000,25.000000,1.000000,6.000000,0.500000,1.000000
z0LrlWaU,200,1, test, 2, 1, 24, 4, 1, 4, 1, 0.65, 0.35, left, 1, 0.35, 0.45, 0.55, 0.65, 0.7356585999950767, 1, 13.000000,26.000000,1.000000,6.000000,0.500000,1.000000
z0LrlWaU,200,1, test, 2, 1, 25, 2, 3, 3, 2, 0.45, 0.55, right, 2, 0.35, 0.45, 0.55, 0.65, 1.3005770000163466, 0, 13.000000,26.000000,1.000000,6.000000,0.500000,1.000000
z0LrlWaU,200,1, test, 3, 7, 1, 2, 3, 3, 2, 0.45, 0.55, right, 2, 0.35, 0.45, 0.55, 0.65, 0.9001505000051111, 1, 1.000000,27.000000,1.000000,6.000000,0.500000,1.000000
z0LrlWaU,200,1, test, 3, 7, 2, 2, 1, 2, 1, 0.45, 0.35, left, 1, 0.35, 0.45, 0.55, 0.65, 0.6718224000651389, 1, 2.000000,28.000000,1.000000,6.000000,0.500000,1.000000
z0LrlWaU,200,1, test, 3, 7, 3, 4, 3, 4, 3, 0.65, 0.55, left, 1, 0.35, 0.45, 0.55, 0.65, 1.1225894999224693, 0, 2.000000,28.000000,1.000000,6.000000,0.500000,1.000000
z0LrlWaU,200,1, test, 3, 7, 4, 1, 4, 4, 1, 0.35, 0.65, right, 2, 0.35, 0.45, 0.55, 0.65, 0.7716973999049515, 1, 3.000000,29.000000,1.000000,6.000000,0.500000,1.000000
z0LrlWaU,200,1, test, 3, 7, 5, 2, 4, 2, 4, 0.45, 0.65, left, 1, 0.35, 0.45, 0.55, 0.65, 0.44872880005277693, 0, 3.000000,29.000000,1.000000,6.000000,0.500000,1.000000
z0LrlWaU,200,1, test, 3, 7, 6, 2, 1, 2, 1, 0.45, 0.35, left, 1, 0.35, 0.45, 0.55, 0.65, 0.9228260000236332, 1, 4.000000,30.000000,1.000000,6.000000,0.500000,1.000000
z0LrlWaU,200,1, test, 3, 7, 7, 1, 3, 1, 3, 0.35, 0.55, left, 1, 0.35, 0.45, 0.55, 0.65, 1.035407500108704, 0, 4.000000,30.000000,1.000000,6.000000,0.500000,1.000000
z0LrlWaU,200,1, test, 3, 7, 8, 2, 3, 3, 2, 0.45, 0.55, right, 2, 0.35, 0.45, 0.55, 0.65, 0.9582422999665141, 1, 5.000000,31.000000,1.000000,6.000000,0.500000,1.000000
z0LrlWaU,200,1, test, 3, 7, 9, 2, 3, 2, 3, 0.45, 0.55, left, 1, 0.35, 0.45, 0.55, 0.65, 0.3847288000397384, 1, 6.000000,32.000000,1.000000,6.000000,0.500000,1.000000
z0LrlWaU,200,1, test, 3, 7, 10, 2, 1, 2, 1, 0.45, 0.35, left, 1, 0.35, 0.45, 0.55, 0.65, 0.4874249999411404, 0, 6.000000,32.000000,1.000000,6.000000,0.500000,1.000000
z0LrlWaU,200,1, test, 3, 7, 11, 3, 4, 4, 3, 0.55, 0.65, right, 2, 0.35, 0.45, 0.55, 0.65, 1.160025400109589, 0, 6.000000,32.000000,1.000000,6.000000,0.500000,1.000000
z0LrlWaU,200,1, test, 3, 7, 12, 4, 1, 4, 1, 0.65, 0.35, left, 1, 0.35, 0.45, 0.55, 0.65, 0.7757826999295503, 1, 7.000000,33.000000,1.000000,6.000000,0.500000,1.000000
z0LrlWaU,200,1, test, 3, 7, 13, 3, 2, 2, 3, 0.55, 0.45, right, 2, 0.35, 0.45, 0.55, 0.65, 1.0284221000038087, 0, 7.000000,33.000000,1.000000,6.000000,0.500000,1.000000
z0LrlWaU,200,1, test, 3, 7, 14, 3, 4, 4, 3, 0.55, 0.65, right, 2, 0.35, 0.45, 0.55, 0.65, 1.6036650999449193, 0, 7.000000,33.000000,1.000000,6.000000,0.500000,1.000000
z0LrlWaU,200,1, test, 3, 7, 15, 2, 3, 2, 3, 0.45, 0.55, left, 1, 0.35, 0.45, 0.55, 0.65, 0.8207852998748422, 1, 8.000000,34.000000,1.000000,6.000000,0.500000,1.000000
z0LrlWaU,200,1, test, 3, 7, 16, 1, 4, 4, 1, 0.35, 0.65, right, 2, 0.35, 0.45, 0.55, 0.65, 0.9603783001657575, 1, 9.000000,35.000000,1.000000,6.000000,0.500000,1.000000
z0LrlWaU,200,1, test, 3, 7, 17, 2, 1, 2, 1, 0.45, 0.35, left, 1, 0.35, 0.45, 0.55, 0.65, 1.0991116999648511, 1, 10.000000,36.000000,1.000000,6.000000,0.500000,1.000000
z0LrlWaU,200,1, test, 3, 7, 18, 2, 3, 3, 2, 0.45, 0.55, right, 2, 0.35, 0.45, 0.55, 0.65, 0.39637290011160076, 1, 11.000000,37.000000,1.000000,6.000000,0.500000,1.000000
z0LrlWaU,200,1, test, 3, 7, 19, 2, 3, 2, 3, 0.45, 0.55, left, 1, 0.35, 0.45, 0.55, 0.65, 0.2886059999000281, 1, 12.000000,38.000000,1.000000,6.000000,0.500000,1.000000
z0LrlWaU,200,1, test, 3, 7, 20, 1, 3, 1, 3, 0.35, 0.55, left, 1, 0.35, 0.45, 0.55, 0.65, 1.018695600097999, 0, 12.000000,38.000000,1.000000,6.000000,0.500000,1.000000
z0LrlWaU,200,1, test, 3, 7, 21, 3, 1, 3, 1, 0.55, 0.35, left, 1, 0.35, 0.45, 0.55, 0.65, 0.5461367999669164, 1, 13.000000,39.000000,1.000000,6.000000,0.500000,1.000000
z0LrlWaU,200,1, test, 3, 7, 22, 2, 1, 2, 1, 0.45, 0.35, left, 1, 0.35, 0.45, 0.55, 0.65, 0.5925446001347154, 0, 13.000000,39.000000,1.000000,6.000000,0.500000,1.000000
z0LrlWaU,200,1, test, 3, 7, 23, 4, 1, 1, 4, 0.65, 0.35, right, 2, 0.35, 0.45, 0.55, 0.65, 1.485320899868384, 0, 13.000000,39.000000,1.000000,6.000000,0.500000,1.000000
z0LrlWaU,200,1, test, 3, 7, 24, 1, 4, 4, 1, 0.35, 0.65, right, 2, 0.35, 0.45, 0.55, 0.65, 0.9863043001387268, 0, 13.000000,39.000000,1.000000,6.000000,0.500000,1.000000
z0LrlWaU,200,1, test, 3, 7, 25, 1, 4, 4, 1, 0.35, 0.65, right, 2, 0.35, 0.45, 0.55, 0.65, 0.8965776001568884, 0, 13.000000,39.000000,1.000000,6.000000,0.500000,1.000000
z0LrlWaU,200,1, test, 4, 1, 1, 4, 3, 4, 3, 0.65, 0.55, left, 1, 0.35, 0.45, 0.55, 0.65, 1.6346018998883665, 0, 0.000000,39.000000,1.000000,6.000000,0.500000,1.000000
z0LrlWaU,200,1, test, 4, 1, 2, 2, 4, 4, 2, 0.45, 0.65, right, 2, 0.35, 0.45, 0.55, 0.65, 1.013432600069791, 0, 0.000000,39.000000,1.000000,6.000000,0.500000,1.000000
z0LrlWaU,200,1, test, 4, 1, 3, 1, 2, 1, 2, 0.35, 0.45, left, 1, 0.35, 0.45, 0.55, 0.65, 0.9241669999901205, 0, 0.000000,39.000000,1.000000,6.000000,0.500000,1.000000
z0LrlWaU,200,1, test, 4, 1, 4, 4, 1, 1, 4, 0.65, 0.35, right, 2, 0.35, 0.45, 0.55, 0.65, 1.1056327000260353, 0, 0.000000,39.000000,1.000000,6.000000,0.500000,1.000000
z0LrlWaU,200,1, test, 4, 1, 5, 3, 1, 3, 1, 0.55, 0.35, left, 1, 0.35, 0.45, 0.55, 0.65, 1.3054647999815643, 0, 0.000000,39.000000,1.000000,6.000000,0.500000,1.000000
z0LrlWaU,200,1, test, 4, 1, 6, 4, 1, 4, 1, 0.65, 0.35, left, 1, 0.35, 0.45, 0.55, 0.65, 1.2110472999047488, 0, 0.000000,39.000000,1.000000,6.000000,0.500000,1.000000
z0LrlWaU,200,1, test, 4, 1, 7, 2, 3, 3, 2, 0.45, 0.55, right, 2, 0.35, 0.45, 0.55, 0.65, 0.9902134998701513, 1, 1.000000,40.000000,1.000000,6.000000,0.500000,1.000000
z0LrlWaU,200,1, test, 4, 1, 8, 3, 4, 4, 3, 0.55, 0.65, right, 2, 0.35, 0.45, 0.55, 0.65, 0.7888593999668956, 0, 1.000000,40.000000,1.000000,6.000000,0.500000,1.000000
z0LrlWaU,200,1, test, 4, 1, 9, 3, 4, 3, 4, 0.55, 0.65, left, 1, 0.35, 0.45, 0.55, 0.65, 0.40549459983594716, 1, 2.000000,41.000000,1.000000,6.000000,0.500000,1.000000
z0LrlWaU,200,1, test, 4, 1, 10, 2, 1, 1, 2, 0.45, 0.35, right, 2, 0.35, 0.45, 0.55, 0.65, 0.8347404000815004, 1, 3.000000,42.000000,1.000000,6.000000,0.500000,1.000000
z0LrlWaU,200,1, test, 4, 1, 11, 2, 3, 3, 2, 0.45, 0.55, right, 2, 0.35, 0.45, 0.55, 0.65, 0.8166875999886543, 0, 3.000000,42.000000,1.000000,6.000000,0.500000,1.000000
z0LrlWaU,200,1, test, 4, 1, 12, 2, 4, 2, 4, 0.45, 0.65, left, 1, 0.35, 0.45, 0.55, 0.65, 0.8061779998242855, 1, 4.000000,43.000000,1.000000,6.000000,0.500000,1.000000
z0LrlWaU,200,1, test, 4, 1, 13, 2, 1, 1, 2, 0.45, 0.35, right, 2, 0.35, 0.45, 0.55, 0.65, 0.3664705001283437, 1, 5.000000,44.000000,1.000000,6.000000,0.500000,1.000000
z0LrlWaU,200,1, test, 4, 1, 14, 2, 4, 2, 4, 0.45, 0.65, left, 1, 0.35, 0.45, 0.55, 0.65, 0.5792901001404971, 1, 6.000000,45.000000,1.000000,6.000000,0.500000,1.000000
z0LrlWaU,200,1, test, 4, 1, 15, 2, 1, 2, 1, 0.45, 0.35, left, 1, 0.35, 0.45, 0.55, 0.65, 0.8331556001212448, 0, 6.000000,45.000000,1.000000,6.000000,0.500000,1.000000
z0LrlWaU,200,1, test, 4, 1, 16, 2, 1, 1, 2, 0.45, 0.35, right, 2, 0.35, 0.45, 0.55, 0.65, 0.3761442999821156, 0, 6.000000,45.000000,1.000000,6.000000,0.500000,1.000000
z0LrlWaU,200,1, test, 4, 1, 17, 2, 4, 4, 2, 0.45, 0.65, right, 2, 0.35, 0.45, 0.55, 0.65, 0.34209569985978305, 1, 7.000000,46.000000,1.000000,6.000000,0.500000,1.000000
z0LrlWaU,200,1, test, 4, 1, 18, 2, 1, 2, 1, 0.45, 0.35, left, 1, 0.35, 0.45, 0.55, 0.65, 0.3453738000243902, 0, 7.000000,46.000000,1.000000,6.000000,0.500000,1.000000
z0LrlWaU,200,1, test, 4, 1, 19, 2, 4, 2, 4, 0.45, 0.65, left, 1, 0.35, 0.45, 0.55, 0.65, 0.38572310004383326, 0, 7.000000,46.000000,1.000000,6.000000,0.500000,1.000000
z0LrlWaU,200,1, test, 4, 1, 20, 3, 1, 3, 1, 0.55, 0.35, left, 1, 0.35, 0.45, 0.55, 0.65, 1.0028278999961913, 1, 8.000000,47.000000,1.000000,6.000000,0.500000,1.000000
z0LrlWaU,200,1, test, 4, 1, 21, 3, 1, 3, 1, 0.55, 0.35, left, 1, 0.35, 0.45, 0.55, 0.65, 0.7386687002144754, 1, 9.000000,48.000000,1.000000,6.000000,0.500000,1.000000
z0LrlWaU,200,1, test, 4, 1, 22, 1, 4, 1, 4, 0.35, 0.65, left, 1, 0.35, 0.45, 0.55, 0.65, 0.9349269999656826, 1, 10.000000,49.000000,1.000000,6.000000,0.500000,1.000000
z0LrlWaU,200,1, test, 4, 1, 23, 2, 4, 4, 2, 0.45, 0.65, right, 2, 0.35, 0.45, 0.55, 0.65, 0.4886259001214057, 1, 11.000000,50.000000,1.000000,6.000000,0.500000,1.000000
z0LrlWaU,200,1, test, 4, 1, 24, 2, 4, 2, 4, 0.45, 0.65, left, 1, 0.35, 0.45, 0.55, 0.65, 0.3664886001497507, 1, 12.000000,51.000000,1.000000,6.000000,0.500000,1.000000
z0LrlWaU,200,1, test, 4, 1, 25, 3, 4, 4, 3, 0.55, 0.65, right, 2, 0.35, 0.45, 0.55, 0.65, 0.752068700036034, 1, 13.000000,52.000000,1.000000,6.000000,0.500000,1.000000
z0LrlWaU,200,1, test, 5, 7, 1, 4, 2, 4, 2, 0.65, 0.45, left, 1, 0.35, 0.45, 0.55, 0.65, 0.6605827000457793, 1, 1.000000,53.000000,1.000000,6.000000,0.500000,1.000000
z0LrlWaU,200,1, test, 5, 7, 2, 4, 2, 4, 2, 0.65, 0.45, left, 1, 0.35, 0.45, 0.55, 0.65, 0.36784729990176857, 1, 2.000000,54.000000,1.000000,6.000000,0.500000,1.000000
z0LrlWaU,200,1, test, 5, 7, 3, 2, 1, 2, 1, 0.45, 0.35, left, 1, 0.35, 0.45, 0.55, 0.65, 1.3747554998844862, 1, 3.000000,55.000000,1.000000,6.000000,0.500000,1.000000
z0LrlWaU,200,1, test, 5, 7, 4, 4, 3, 3, 4, 0.65, 0.55, right, 2, 0.35, 0.45, 0.55, 0.65, 0.7090567999985069, 1, 4.000000,56.000000,1.000000,6.000000,0.500000,1.000000
z0LrlWaU,200,1, test, 5, 7, 5, 4, 3, 3, 4, 0.65, 0.55, right, 2, 0.35, 0.45, 0.55, 0.65, 0.5333444999996573, 0, 4.000000,56.000000,1.000000,6.000000,0.500000,1.000000
z0LrlWaU,200,1, test, 5, 7, 6, 2, 3, 2, 3, 0.45, 0.55, left, 1, 0.35, 0.45, 0.55, 0.65, 0.9443440998438746, 1, 5.000000,57.000000,1.000000,6.000000,0.500000,1.000000
z0LrlWaU,200,1, test, 5, 7, 7, 1, 3, 1, 3, 0.35, 0.55, left, 1, 0.35, 0.45, 0.55, 0.65, 0.9784788000397384, 0, 5.000000,57.000000,1.000000,6.000000,0.500000,1.000000
z0LrlWaU,200,1, test, 5, 7, 8, 1, 3, 3, 1, 0.35, 0.55, right, 2, 0.35, 0.45, 0.55, 0.65, 1.1156262999866158, 0, 5.000000,57.000000,1.000000,6.000000,0.500000,1.000000
z0LrlWaU,200,1, test, 5, 7, 9, 2, 1, 1, 2, 0.45, 0.35, right, 2, 0.35, 0.45, 0.55, 0.65, 0.7961787001695484, 1, 6.000000,58.000000,1.000000,6.000000,0.500000,1.000000
z0LrlWaU,200,1, test, 5, 7, 10, 4, 2, 4, 2, 0.65, 0.45, left, 1, 0.35, 0.45, 0.55, 0.65, 0.38898769998922944, 1, 7.000000,59.000000,1.000000,6.000000,0.500000,1.000000
z0LrlWaU,200,1, test, 5, 7, 11, 4, 1, 4, 1, 0.65, 0.35, left, 1, 0.35, 0.45, 0.55, 0.65, 0.3333839999977499, 1, 8.000000,60.000000,1.000000,6.000000,0.500000,1.000000
z0LrlWaU,200,1, test, 5, 7, 12, 4, 1, 4, 1, 0.65, 0.35, left, 1, 0.35, 0.45, 0.55, 0.65, 0.276937099872157, 1, 9.000000,61.000000,1.000000,6.000000,0.500000,1.000000
z0LrlWaU,200,1, test, 5, 7, 13, 2, 3, 2, 3, 0.45, 0.55, left, 1, 0.35, 0.45, 0.55, 0.65, 1.4995973999612033, 0, 9.000000,61.000000,1.000000,6.000000,0.500000,1.000000
z0LrlWaU,200,1, test, 5, 7, 14, 4, 2, 4, 2, 0.65, 0.45, left, 1, 0.35, 0.45, 0.55, 0.65, 1.3873590999282897, 0, 9.000000,61.000000,1.000000,6.000000,0.500000,1.000000
z0LrlWaU,200,1, test, 5, 7, 15, 4, 2, 2, 4, 0.65, 0.45, right, 2, 0.35, 0.45, 0.55, 0.65, 0.7368785999715328, 0, 9.000000,61.000000,1.000000,6.000000,0.500000,1.000000
z0LrlWaU,200,1, test, 5, 7, 16, 1, 3, 1, 3, 0.35, 0.55, left, 1, 0.35, 0.45, 0.55, 0.65, 1.1123091999907047, 0, 9.000000,61.000000,1.000000,6.000000,0.500000,1.000000
z0LrlWaU,200,1, test, 5, 7, 17, 2, 3, 3, 2, 0.45, 0.55, right, 2, 0.35, 0.45, 0.55, 0.65, 0.6078910999931395, 1, 10.000000,62.000000,1.000000,6.000000,0.500000,1.000000
z0LrlWaU,200,1, test, 5, 7, 18, 2, 3, 2, 3, 0.45, 0.55, left, 1, 0.35, 0.45, 0.55, 0.65, 0.5129754000809044, 0, 10.000000,62.000000,1.000000,6.000000,0.500000,1.000000
z0LrlWaU,200,1, test, 5, 7, 19, 4, 1, 4, 1, 0.65, 0.35, left, 1, 0.35, 0.45, 0.55, 0.65, 0.3883426000829786, 1, 11.000000,63.000000,1.000000,6.000000,0.500000,1.000000
z0LrlWaU,200,1, test, 5, 7, 20, 4, 3, 3, 4, 0.65, 0.55, right, 2, 0.35, 0.45, 0.55, 0.65, 0.3345174000132829, 0, 11.000000,63.000000,1.000000,6.000000,0.500000,1.000000
z0LrlWaU,200,1, test, 5, 7, 21, 2, 3, 3, 2, 0.45, 0.55, right, 2, 0.35, 0.45, 0.55, 0.65, 0.7770996000617743, 1, 12.000000,64.000000,1.000000,6.000000,0.500000,1.000000
z0LrlWaU,200,1, test, 5, 7, 22, 2, 3, 3, 2, 0.45, 0.55, right, 2, 0.35, 0.45, 0.55, 0.65, 0.5074168001301587, 0, 12.000000,64.000000,1.000000,6.000000,0.500000,1.000000
z0LrlWaU,200,1, test, 5, 7, 23, 4, 1, 1, 4, 0.65, 0.35, right, 2, 0.35, 0.45, 0.55, 0.65, 0.5039361000526696, 0, 12.000000,64.000000,1.000000,6.000000,0.500000,1.000000
z0LrlWaU,200,1, test, 5, 7, 24, 4, 3, 3, 4, 0.65, 0.55, right, 2, 0.35, 0.45, 0.55, 0.65, 0.5887542001437396, 1, 13.000000,65.000000,1.000000,6.000000,0.500000,1.000000
z0LrlWaU,200,1, test, 5, 7, 25, 4, 3, 3, 4, 0.65, 0.55, right, 2, 0.35, 0.45, 0.55, 0.65, 0.5097542000003159, 0, 13.000000,65.000000,1.000000,6.000000,0.500000,1.000000
z0LrlWaU,200,1, test, 6, 1, 1, 3, 2, 2, 3, 0.55, 0.45, right, 2, 0.35, 0.45, 0.55, 0.65, 1.0154468999244273, 0, 0.000000,65.000000,1.000000,6.000000,0.500000,1.000000
z0LrlWaU,200,1, test, 6, 1, 2, 2, 1, 1, 2, 0.45, 0.35, right, 2, 0.35, 0.45, 0.55, 0.65, 0.9743425999768078, 1, 1.000000,66.000000,1.000000,6.000000,0.500000,1.000000
z0LrlWaU,200,1, test, 6, 1, 3, 2, 3, 3, 2, 0.45, 0.55, right, 2, 0.35, 0.45, 0.55, 0.65, 0.6078423999715596, 1, 2.000000,67.000000,1.000000,6.000000,0.500000,1.000000
z0LrlWaU,200,1, test, 6, 1, 4, 2, 3, 3, 2, 0.45, 0.55, right, 2, 0.35, 0.45, 0.55, 0.65, 0.4859635999891907, 0, 2.000000,67.000000,1.000000,6.000000,0.500000,1.000000
z0LrlWaU,200,1, test, 6, 1, 5, 1, 3, 1, 3, 0.35, 0.55, left, 1, 0.35, 0.45, 0.55, 0.65, 1.3580179000273347, 0, 2.000000,67.000000,1.000000,6.000000,0.500000,1.000000
z0LrlWaU,200,1, test, 6, 1, 6, 4, 3, 4, 3, 0.65, 0.55, left, 1, 0.35, 0.45, 0.55, 0.65, 0.6764681001659483, 1, 3.000000,68.000000,1.000000,6.000000,0.500000,1.000000
z0LrlWaU,200,1, test, 6, 1, 7, 2, 1, 2, 1, 0.45, 0.35, left, 1, 0.35, 0.45, 0.55, 0.65, 0.7909694998525083, 1, 4.000000,69.000000,1.000000,6.000000,0.500000,1.000000
z0LrlWaU,200,1, test, 6, 1, 8, 4, 1, 4, 1, 0.65, 0.35, left, 1, 0.35, 0.45, 0.55, 0.65, 0.3476397998165339, 0, 4.000000,69.000000,1.000000,6.000000,0.500000,1.000000
z0LrlWaU,200,1, test, 6, 1, 9, 2, 1, 2, 1, 0.45, 0.35, left, 1, 0.35, 0.45, 0.55, 0.65, 0.45996699994429946, 1, 5.000000,70.000000,1.000000,6.000000,0.500000,1.000000
z0LrlWaU,200,1, test, 6, 1, 10, 2, 1, 2, 1, 0.45, 0.35, left, 1, 0.35, 0.45, 0.55, 0.65, 0.784953499911353, 1, 6.000000,71.000000,1.000000,6.000000,0.500000,1.000000
z0LrlWaU,200,1, test, 6, 1, 11, 4, 3, 3, 4, 0.65, 0.55, right, 2, 0.35, 0.45, 0.55, 0.65, 0.5429859000723809, 1, 7.000000,72.000000,1.000000,6.000000,0.500000,1.000000
z0LrlWaU,200,1, test, 6, 1, 12, 4, 2, 4, 2, 0.65, 0.45, left, 1, 0.35, 0.45, 0.55, 0.65, 0.3427413001190871, 1, 8.000000,73.000000,1.000000,6.000000,0.500000,1.000000
z0LrlWaU,200,1, test, 6, 1, 13, 2, 1, 2, 1, 0.45, 0.35, left, 1, 0.35, 0.45, 0.55, 0.65, 0.5652617998421192, 1, 9.000000,74.000000,1.000000,6.000000,0.500000,1.000000
z0LrlWaU,200,1, test, 6, 1, 14, 4, 2, 2, 4, 0.65, 0.45, right, 2, 0.35, 0.45, 0.55, 0.65, 1.3156558000482619, 1, 10.000000,75.000000,1.000000,6.000000,0.500000,1.000000
z0LrlWaU,200,1, test, 6, 1, 15, 2, 1, 2, 1, 0.45, 0.35, left, 1, 0.35, 0.45, 0.55, 0.65, 0.5829864998813719, 1, 11.000000,76.000000,1.000000,6.000000,0.500000,1.000000
z0LrlWaU,200,1, test, 6, 1, 16, 4, 3, 3, 4, 0.65, 0.55, right, 2, 0.35, 0.45, 0.55, 0.65, 0.3644125999417156, 1, 12.000000,77.000000,1.000000,6.000000,0.500000,1.000000
z0LrlWaU,200,1, test, 6, 1, 17, 1, 3, 3, 1, 0.35, 0.55, right, 2, 0.35, 0.45, 0.55, 0.65, 1.1790276998654008, 1, 13.000000,78.000000,1.000000,6.000000,0.500000,1.000000
z0LrlWaU,200,1, test, 6, 1, 18, 2, 3, 2, 3, 0.45, 0.55, left, 1, 0.35, 0.45, 0.55, 0.65, 0.5133772999979556, 0, 13.000000,78.000000,1.000000,6.000000,0.500000,1.000000
z0LrlWaU,200,1, test, 6, 1, 19, 4, 1, 1, 4, 0.65, 0.35, right, 2, 0.35, 0.45, 0.55, 0.65, 0.3477016999386251, 0, 13.000000,78.000000,1.000000,6.000000,0.500000,1.000000
z0LrlWaU,200,1, test, 6, 1, 20, 2, 1, 1, 2, 0.45, 0.35, right, 2, 0.35, 0.45, 0.55, 0.65, 0.4391884000506252, 0, 13.000000,78.000000,1.000000,6.000000,0.500000,1.000000
z0LrlWaU,200,1, test, 6, 1, 21, 2, 1, 2, 1, 0.45, 0.35, left, 1, 0.35, 0.45, 0.55, 0.65, 0.38207629998214543, 0, 13.000000,78.000000,1.000000,6.000000,0.500000,1.000000
z0LrlWaU,200,1, test, 6, 1, 22, 4, 1, 1, 4, 0.65, 0.35, right, 2, 0.35, 0.45, 0.55, 0.65, 0.45537109998986125, 1, 14.000000,79.000000,1.000000,6.000000,0.500000,1.000000
z0LrlWaU,200,1, test, 6, 1, 23, 4, 3, 3, 4, 0.65, 0.55, right, 2, 0.35, 0.45, 0.55, 0.65, 0.33350279997102916, 1, 15.000000,80.000000,1.000000,6.000000,0.500000,1.000000
z0LrlWaU,200,1, test, 6, 1, 24, 4, 1, 1, 4, 0.65, 0.35, right, 2, 0.35, 0.45, 0.55, 0.65, 0.39800760010257363, 0, 15.000000,80.000000,1.000000,6.000000,0.500000,1.000000
z0LrlWaU,200,1, test, 6, 1, 25, 4, 2, 2, 4, 0.65, 0.45, right, 2, 0.35, 0.45, 0.55, 0.65, 0.5706978000234812, 0, 15.000000,80.000000,1.000000,6.000000,0.500000,1.000000
z0LrlWaU,200,1, test, 7, 7, 1, 1, 4, 1, 4, 0.35, 0.65, left, 1, 0.35, 0.45, 0.55, 0.65, 1.0323421000503004, 1, 1.000000,81.000000,1.000000,6.000000,0.500000,1.000000
z0LrlWaU,200,1, test, 7, 7, 2, 3, 4, 4, 3, 0.55, 0.65, right, 2, 0.35, 0.45, 0.55, 0.65, 0.8116629000287503, 0, 1.000000,81.000000,1.000000,6.000000,0.500000,1.000000
z0LrlWaU,200,1, test, 7, 7, 3, 4, 2, 4, 2, 0.65, 0.45, left, 1, 0.35, 0.45, 0.55, 0.65, 1.4195973000023514, 0, 1.000000,81.000000,1.000000,6.000000,0.500000,1.000000
z0LrlWaU,200,1, test, 7, 7, 4, 2, 3, 3, 2, 0.45, 0.55, right, 2, 0.35, 0.45, 0.55, 0.65, 1.3967199998442084, 0, 1.000000,81.000000,1.000000,6.000000,0.500000,1.000000
z0LrlWaU,200,1, test, 7, 7, 5, 1, 2, 1, 2, 0.35, 0.45, left, 1, 0.35, 0.45, 0.55, 0.65, 0.6289240999612957, 0, 1.000000,81.000000,1.000000,6.000000,0.500000,1.000000
z0LrlWaU,200,1, test, 7, 7, 6, 1, 2, 1, 2, 0.35, 0.45, left, 1, 0.35, 0.45, 0.55, 0.65, 0.36431719991378486, 0, 1.000000,81.000000,1.000000,6.000000,0.500000,1.000000
z0LrlWaU,200,1, test, 7, 7, 7, 4, 2, 4, 2, 0.65, 0.45, left, 1, 0.35, 0.45, 0.55, 0.65, 1.1699568000622094, 1, 2.000000,82.000000,1.000000,6.000000,0.500000,1.000000
z0LrlWaU,200,1, test, 7, 7, 8, 4, 2, 2, 4, 0.65, 0.45, right, 2, 0.35, 0.45, 0.55, 0.65, 1.0849130998831242, 1, 3.000000,83.000000,1.000000,6.000000,0.500000,1.000000
z0LrlWaU,200,1, test, 7, 7, 9, 4, 3, 4, 3, 0.65, 0.55, left, 1, 0.35, 0.45, 0.55, 0.65, 0.8223154000006616, 1, 4.000000,84.000000,1.000000,6.000000,0.500000,1.000000
z0LrlWaU,200,1, test, 7, 7, 10, 4, 1, 4, 1, 0.65, 0.35, left, 1, 0.35, 0.45, 0.55, 0.65, 3.6647885001730174, 0, 4.000000,84.000000,1.000000,6.000000,0.500000,1.000000
z0LrlWaU,200,1, test, 7, 7, 11, 4, 3, 4, 3, 0.65, 0.55, left, 1, 0.35, 0.45, 0.55, 0.65, 0.3401556999888271, 1, 5.000000,85.000000,1.000000,6.000000,0.500000,1.000000
z0LrlWaU,200,1, test, 7, 7, 12, 2, 3, 3, 2, 0.45, 0.55, right, 2, 0.35, 0.45, 0.55, 0.65, 1.0153409000486135, 1, 6.000000,86.000000,1.000000,6.000000,0.500000,1.000000
z0LrlWaU,200,1, test, 7, 7, 13, 4, 1, 4, 1, 0.65, 0.35, left, 1, 0.35, 0.45, 0.55, 0.65, 0.8911614001262933, 1, 7.000000,87.000000,1.000000,6.000000,0.500000,1.000000
z0LrlWaU,200,1, test, 7, 7, 14, 2, 3, 3, 2, 0.45, 0.55, right, 2, 0.35, 0.45, 0.55, 0.65, 0.931105799973011, 1, 8.000000,88.000000,1.000000,6.000000,0.500000,1.000000
z0LrlWaU,200,1, test, 7, 7, 15, 4, 1, 1, 4, 0.65, 0.35, right, 2, 0.35, 0.45, 0.55, 0.65, 1.011018899967894, 0, 8.000000,88.000000,1.000000,6.000000,0.500000,1.000000
z0LrlWaU,200,1, test, 7, 7, 16, 2, 1, 2, 1, 0.45, 0.35, left, 1, 0.35, 0.45, 0.55, 0.65, 1.2800161000341177, 1, 9.000000,89.000000,1.000000,6.000000,0.500000,1.000000
z0LrlWaU,200,1, test, 7, 7, 17, 3, 1, 3, 1, 0.55, 0.35, left, 1, 0.35, 0.45, 0.55, 0.65, 2.652185899903998, 1, 10.000000,90.000000,1.000000,6.000000,0.500000,1.000000
z0LrlWaU,200,1, test, 7, 7, 18, 2, 1, 1, 2, 0.45, 0.35, right, 2, 0.35, 0.45, 0.55, 0.65, 0.7076594000682235, 1, 11.000000,91.000000,1.000000,6.000000,0.500000,1.000000
z0LrlWaU,200,1, test, 7, 7, 19, 4, 3, 3, 4, 0.65, 0.55, right, 2, 0.35, 0.45, 0.55, 0.65, 0.7679455000907183, 0, 11.000000,91.000000,1.000000,6.000000,0.500000,1.000000
z0LrlWaU,200,1, test, 7, 7, 20, 4, 1, 1, 4, 0.65, 0.35, right, 2, 0.35, 0.45, 0.55, 0.65, 0.6660380000248551, 0, 11.000000,91.000000,1.000000,6.000000,0.500000,1.000000
z0LrlWaU,200,1, test, 7, 7, 21, 4, 2, 4, 2, 0.65, 0.45, left, 1, 0.35, 0.45, 0.55, 0.65, 0.928804500028491, 0, 11.000000,91.000000,1.000000,6.000000,0.500000,1.000000
z0LrlWaU,200,1, test, 7, 7, 22, 2, 1, 2, 1, 0.45, 0.35, left, 1, 0.35, 0.45, 0.55, 0.65, 0.6921872000675648, 1, 12.000000,92.000000,1.000000,6.000000,0.500000,1.000000
z0LrlWaU,200,1, test, 7, 7, 23, 4, 1, 4, 1, 0.65, 0.35, left, 1, 0.35, 0.45, 0.55, 0.65, 1.03357549989596, 0, 12.000000,92.000000,1.000000,6.000000,0.500000,1.000000
z0LrlWaU,200,1, test, 7, 7, 24, 4, 3, 3, 4, 0.65, 0.55, right, 2, 0.35, 0.45, 0.55, 0.65, 0.7406737999990582, 1, 13.000000,93.000000,1.000000,6.000000,0.500000,1.000000
z0LrlWaU,200,1, test, 7, 7, 25, 1, 2, 1, 2, 0.35, 0.45, left, 1, 0.35, 0.45, 0.55, 0.65, 1.228231499902904, 1, 14.000000,94.000000,1.000000,6.000000,0.500000,1.000000
z0LrlWaU,200,1, test, 8, 1, 1, 4, 2, 4, 2, 0.65, 0.45, left, 1, 0.35, 0.45, 0.55, 0.65, 0.7576268000993878, 0, 0.000000,94.000000,1.000000,6.000000,0.500000,1.000000
z0LrlWaU,200,1, test, 8, 1, 2, 2, 4, 4, 2, 0.45, 0.65, right, 2, 0.35, 0.45, 0.55, 0.65, 0.7633612998761237, 0, 0.000000,94.000000,1.000000,6.000000,0.500000,1.000000
z0LrlWaU,200,1, test, 8, 1, 3, 2, 3, 2, 3, 0.45, 0.55, left, 1, 0.35, 0.45, 0.55, 0.65, 0.9671545999590307, 1, 1.000000,95.000000,1.000000,6.000000,0.500000,1.000000
z0LrlWaU,200,1, test, 8, 1, 4, 2, 1, 2, 1, 0.45, 0.35, left, 1, 0.35, 0.45, 0.55, 0.65, 0.36826829984784126, 0, 1.000000,95.000000,1.000000,6.000000,0.500000,1.000000
z0LrlWaU,200,1, test, 8, 1, 5, 3, 1, 3, 1, 0.55, 0.35, left, 1, 0.35, 0.45, 0.55, 0.65, 0.9628179999999702, 1, 2.000000,96.000000,1.000000,6.000000,0.500000,1.000000
z0LrlWaU,200,1, test, 8, 1, 6, 4, 1, 1, 4, 0.65, 0.35, right, 2, 0.35, 0.45, 0.55, 0.65, 0.9881649999879301, 0, 2.000000,96.000000,1.000000,6.000000,0.500000,1.000000
z0LrlWaU,200,1, test, 8, 1, 7, 4, 2, 4, 2, 0.65, 0.45, left, 1, 0.35, 0.45, 0.55, 0.65, 0.9855115001555532, 0, 2.000000,96.000000,1.000000,6.000000,0.500000,1.000000
z0LrlWaU,200,1, test, 8, 1, 8, 3, 1, 1, 3, 0.55, 0.35, right, 2, 0.35, 0.45, 0.55, 0.65, 1.1546090999618173, 0, 2.000000,96.000000,1.000000,6.000000,0.500000,1.000000
z0LrlWaU,200,1, test, 8, 1, 9, 3, 2, 2, 3, 0.55, 0.45, right, 2, 0.35, 0.45, 0.55, 0.65, 0.38861009990796447, 1, 3.000000,97.000000,1.000000,6.000000,0.500000,1.000000
z0LrlWaU,200,1, test, 8, 1, 10, 2, 4, 4, 2, 0.45, 0.65, right, 2, 0.35, 0.45, 0.55, 0.65, 1.006606999784708, 0, 3.000000,97.000000,1.000000,6.000000,0.500000,1.000000
z0LrlWaU,200,1, test, 8, 1, 11, 1, 2, 2, 1, 0.35, 0.45, right, 2, 0.35, 0.45, 0.55, 0.65, 0.7682789999525994, 0, 3.000000,97.000000,1.000000,6.000000,0.500000,1.000000
z0LrlWaU,200,1, test, 8, 1, 12, 4, 2, 4, 2, 0.65, 0.45, left, 1, 0.35, 0.45, 0.55, 0.65, 0.6012176000513136, 0, 3.000000,97.000000,1.000000,6.000000,0.500000,1.000000
z0LrlWaU,200,1, test, 8, 1, 13, 1, 2, 1, 2, 0.35, 0.45, left, 1, 0.35, 0.45, 0.55, 0.65, 1.002968299901113, 0, 3.000000,97.000000,1.000000,6.000000,0.500000,1.000000
z0LrlWaU,200,1, test, 8, 1, 14, 3, 1, 1, 3, 0.55, 0.35, right, 2, 0.35, 0.45, 0.55, 0.65, 0.4797135000117123, 1, 4.000000,98.000000,1.000000,6.000000,0.500000,1.000000
z0LrlWaU,200,1, test, 8, 1, 15, 2, 4, 2, 4, 0.45, 0.65, left, 1, 0.35, 0.45, 0.55, 0.65, 0.9127706000581384, 0, 4.000000,98.000000,1.000000,6.000000,0.500000,1.000000
z0LrlWaU,200,1, test, 8, 1, 16, 4, 2, 4, 2, 0.65, 0.45, left, 1, 0.35, 0.45, 0.55, 0.65, 0.6246086000464857, 1, 5.000000,99.000000,1.000000,6.000000,0.500000,1.000000
z0LrlWaU,200,1, test, 8, 1, 17, 4, 1, 4, 1, 0.65, 0.35, left, 1, 0.35, 0.45, 0.55, 0.65, 1.008828799938783, 1, 6.000000,100.000000,1.000000,6.000000,0.500000,1.000000
z0LrlWaU,200,1, test, 8, 1, 18, 3, 2, 3, 2, 0.55, 0.45, left, 1, 0.35, 0.45, 0.55, 0.65, 0.6052381999325007, 0, 6.000000,100.000000,1.000000,6.000000,0.500000,1.000000
z0LrlWaU,200,1, test, 8, 1, 19, 4, 1, 4, 1, 0.65, 0.35, left, 1, 0.35, 0.45, 0.55, 0.65, 0.6843012999743223, 1, 7.000000,101.000000,1.000000,6.000000,0.500000,1.000000
z0LrlWaU,200,1, test, 8, 1, 20, 3, 2, 2, 3, 0.55, 0.45, right, 2, 0.35, 0.45, 0.55, 0.65, 0.6635402000974864, 1, 8.000000,102.000000,1.000000,6.000000,0.500000,1.000000
z0LrlWaU,200,1, test, 8, 1, 21, 3, 2, 3, 2, 0.55, 0.45, left, 1, 0.35, 0.45, 0.55, 0.65, 0.59975629998371, 1, 9.000000,103.000000,1.000000,6.000000,0.500000,1.000000
z0LrlWaU,200,1, test, 8, 1, 22, 4, 1, 4, 1, 0.65, 0.35, left, 1, 0.35, 0.45, 0.55, 0.65, 0.429233499802649, 1, 10.000000,104.000000,1.000000,6.000000,0.500000,1.000000
z0LrlWaU,200,1, test, 8, 1, 23, 2, 4, 2, 4, 0.45, 0.65, left, 1, 0.35, 0.45, 0.55, 0.65, 0.4637086000293493, 1, 11.000000,105.000000,1.000000,6.000000,0.500000,1.000000
z0LrlWaU,200,1, test, 8, 1, 24, 3, 2, 3, 2, 0.55, 0.45, left, 1, 0.35, 0.45, 0.55, 0.65, 0.8948176000267267, 1, 12.000000,106.000000,1.000000,6.000000,0.500000,1.000000
z0LrlWaU,200,1, test, 8, 1, 25, 2, 1, 2, 1, 0.45, 0.35, left, 1, 0.35, 0.45, 0.55, 0.65, 1.0557319999206811, 0, 12.000000,106.000000,1.000000,6.000000,0.500000,1.000000
