ShaharID, group, counterbalance, block_type, block, delay_condition, trial, chosen, unchosen, offer_left_image, offer_right_image, exp_value_chosen, exp_value_unchosen, choice_location, choice_key, exp_value1, exp_value2, exp_value3, exp_value4, RT, reward, coins_per_block, coins_per_task,ITI_duration,rt_deadline,choice_feedback_duration,outcome_duration
I1uF609p,200,1, practice, 1, 1, 1, 1, 3, 1, 3, 0.35, 0.55, left, 1, 0.35, 0.45, 0.55, 0.65, 1.6709744999971008, 0, 0.000000,0.000000,1.000000,6.000000,0.500000,1.000000
I1uF609p,200,1, practice, 1, 1, 2, 3, 4, 4, 3, 0.55, 0.65, right, 2, 0.35, 0.45, 0.55, 0.65, 0.7335956000024453, 0, 0.000000,0.000000,1.000000,6.000000,0.500000,1.000000
I1uF609p,200,1, practice, 1, 1, 3, 4, 3, 3, 4, 0.65, 0.55, right, 2, 0.35, 0.45, 0.55, 0.65, 0.4997917000000598, 0, 0.000000,0.000000,1.000000,6.000000,0.500000,1.000000
I1uF609p,200,1, practice, 1, 1, 4, 2, 4, 4, 2, 0.45, 0.65, right, 2, 0.35, 0.45, 0.55, 0.65, 0.5522591000044486, 0, 0.000000,0.000000,1.000000,6.000000,0.500000,1.000000
I1uF609p,200,1, practice, 1, 1, 5, 1, 3, 3, 1, 0.35, 0.55, right, 2, 0.35, 0.45, 0.55, 0.65, 0.4189637999952538, 0, 0.000000,0.000000,1.000000,6.000000,0.500000,1.000000
I1uF609p,200,1, test, 1, 7, 1, 1, 2, 2, 1, 0.35, 0.45, right, 2, 0.35, 0.45, 0.55, 0.65, 0.9567860000097426, 1, 1.000000,1.000000,1.000000,6.000000,0.500000,1.000000
I1uF609p,200,1, test, 1, 7, 2, 2, 1, 2, 1, 0.45, 0.35, left, 1, 0.35, 0.45, 0.55, 0.65, 0.3323457999940729, 0, 1.000000,1.000000,1.000000,6.000000,0.500000,1.000000
I1uF609p,200,1, test, 1, 7, 3, 2, 1, 1, 2, 0.45, 0.35, right, 2, 0.35, 0.45, 0.55, 0.65, 0.3828146000014385, 0, 1.000000,1.000000,1.000000,6.000000,0.500000,1.000000
I1uF609p,200,1, test, 1, 7, 4, 1, 2, 2, 1, 0.35, 0.45, right, 2, 0.35, 0.45, 0.55, 0.65, 0.908865399993374, 0, 1.000000,1.000000,1.000000,6.000000,0.500000,1.000000
I1uF609p,200,1, test, 1, 7, 5, 4, 3, 3, 4, 0.65, 0.55, right, 2, 0.35, 0.45, 0.55, 0.65, 0.5336590000079013, 1, 2.000000,2.000000,1.000000,6.000000,0.500000,1.000000
I1uF609p,200,1, test, 1, 7, 6, 1, 4, 4, 1, 0.35, 0.65, right, 2, 0.35, 0.45, 0.55, 0.65, 0.5728123000008054, 0, 2.000000,2.000000,1.000000,6.000000,0.500000,1.000000
I1uF609p,200,1, test, 1, 7, 7, 2, 4, 4, 2, 0.45, 0.65, right, 2, 0.35, 0.45, 0.55, 0.65, 0.35790869999618735, 1, 3.000000,3.000000,1.000000,6.000000,0.500000,1.000000
I1uF609p,200,1, test, 1, 7, 8, 3, 1, 1, 3, 0.55, 0.35, right, 2, 0.35, 0.45, 0.55, 0.65, 0.3332421999948565, 0, 3.000000,3.000000,1.000000,6.000000,0.500000,1.000000
I1uF609p,200,1, test, 1, 7, 9, 4, 1, 1, 4, 0.65, 0.35, right, 2, 0.35, 0.45, 0.55, 0.65, 0.7254176999995252, 1, 4.000000,4.000000,1.000000,6.000000,0.500000,1.000000
I1uF609p,200,1, test, 1, 7, 10, 4, 1, 4, 1, 0.65, 0.35, left, 1, 0.35, 0.45, 0.55, 0.65, 0.471801100007724, 1, 5.000000,5.000000,1.000000,6.000000,0.500000,1.000000
I1uF609p,200,1, test, 1, 7, 11, 4, 3, 4, 3, 0.65, 0.55, left, 1, 0.35, 0.45, 0.55, 0.65, 0.7062732999911532, 1, 6.000000,6.000000,1.000000,6.000000,0.500000,1.000000
I1uF609p,200,1, test, 1, 7, 12, 4, 3, 3, 4, 0.65, 0.55, right, 2, 0.35, 0.45, 0.55, 0.65, 0.7227961000025971, 1, 7.000000,7.000000,1.000000,6.000000,0.500000,1.000000
I1uF609p,200,1, test, 1, 7, 13, 1, 2, 1, 2, 0.35, 0.45, left, 1, 0.35, 0.45, 0.55, 0.65, 1.5151730999932624, 0, 7.000000,7.000000,1.000000,6.000000,0.500000,1.000000
I1uF609p,200,1, test, 1, 7, 14, 4, 2, 2, 4, 0.65, 0.45, right, 2, 0.35, 0.45, 0.55, 0.65, 1.1544906999915838, 1, 8.000000,8.000000,1.000000,6.000000,0.500000,1.000000
I1uF609p,200,1, test, 1, 7, 15, 2, 4, 2, 4, 0.45, 0.65, left, 1, 0.35, 0.45, 0.55, 0.65, 0.6940108999988297, 0, 8.000000,8.000000,1.000000,6.000000,0.500000,1.000000
I1uF609p,200,1, test, 1, 7, 16, 4, 1, 4, 1, 0.65, 0.35, left, 1, 0.35, 0.45, 0.55, 0.65, 0.5234730999945896, 1, 9.000000,9.000000,1.000000,6.000000,0.500000,1.000000
I1uF609p,200,1, test, 1, 7, 17, 4, 3, 3, 4, 0.65, 0.55, right, 2, 0.35, 0.45, 0.55, 0.65, 0.838823300000513, 1, 10.000000,10.000000,1.000000,6.000000,0.500000,1.000000
I1uF609p,200,1, test, 1, 7, 18, 2, 1, 1, 2, 0.45, 0.35, right, 2, 0.35, 0.45, 0.55, 0.65, 1.1619398999901023, 1, 11.000000,11.000000,1.000000,6.000000,0.500000,1.000000
I1uF609p,200,1, test, 1, 7, 19, 2, 1, 1, 2, 0.45, 0.35, right, 2, 0.35, 0.45, 0.55, 0.65, 0.8843152000044938, 1, 12.000000,12.000000,1.000000,6.000000,0.500000,1.000000
I1uF609p,200,1, test, 1, 7, 20, 4, 3, 4, 3, 0.65, 0.55, left, 1, 0.35, 0.45, 0.55, 0.65, 0.7608308999915607, 0, 12.000000,12.000000,1.000000,6.000000,0.500000,1.000000
I1uF609p,200,1, test, 1, 7, 21, 4, 3, 3, 4, 0.65, 0.55, right, 2, 0.35, 0.45, 0.55, 0.65, 0.7563576999964425, 0, 12.000000,12.000000,1.000000,6.000000,0.500000,1.000000
I1uF609p,200,1, test, 1, 7, 22, 2, 1, 2, 1, 0.45, 0.35, left, 1, 0.35, 0.45, 0.55, 0.65, 0.6698886999947717, 1, 13.000000,13.000000,1.000000,6.000000,0.500000,1.000000
I1uF609p,200,1, test, 1, 7, 23, 2, 3, 3, 2, 0.45, 0.55, right, 2, 0.35, 0.45, 0.55, 0.65, 0.8601444999949308, 0, 13.000000,13.000000,1.000000,6.000000,0.500000,1.000000
I1uF609p,200,1, test, 1, 7, 24, 2, 1, 1, 2, 0.45, 0.35, right, 2, 0.35, 0.45, 0.55, 0.65, 0.6634933000023011, 1, 14.000000,14.000000,1.000000,6.000000,0.500000,1.000000
I1uF609p,200,1, test, 1, 7, 25, 2, 3, 3, 2, 0.45, 0.55, right, 2, 0.35, 0.45, 0.55, 0.65, 0.9409099999902537, 0, 14.000000,14.000000,1.000000,6.000000,0.500000,1.000000
I1uF609p,200,1, test, 2, 1, 1, 1, 3, 3, 1, 0.35, 0.55, right, 2, 0.35, 0.45, 0.55, 0.65, 0.5935782999877119, 1, 1.000000,15.000000,1.000000,6.000000,0.500000,1.000000
I1uF609p,200,1, test, 2, 1, 2, 1, 4, 1, 4, 0.35, 0.65, left, 1, 0.35, 0.45, 0.55, 0.65, 0.557763699995121, 1, 2.000000,16.000000,1.000000,6.000000,0.500000,1.000000
I1uF609p,200,1, test, 2, 1, 3, 3, 4, 4, 3, 0.55, 0.65, right, 2, 0.35, 0.45, 0.55, 0.65, 2.077347300000838, 0, 2.000000,16.000000,1.000000,6.000000,0.500000,1.000000
I1uF609p,200,1, test, 2, 1, 4, 4, 2, 2, 4, 0.65, 0.45, right, 2, 0.35, 0.45, 0.55, 0.65, 1.2184887999901548, 1, 3.000000,17.000000,1.000000,6.000000,0.500000,1.000000
I1uF609p,200,1, test, 2, 1, 5, 1, 3, 3, 1, 0.35, 0.55, right, 2, 0.35, 0.45, 0.55, 0.65, 0.64749319999828, 0, 3.000000,17.000000,1.000000,6.000000,0.500000,1.000000
I1uF609p,200,1, test, 2, 1, 6, 1, 4, 1, 4, 0.35, 0.65, left, 1, 0.35, 0.45, 0.55, 0.65, 0.7739877999993041, 1, 4.000000,18.000000,1.000000,6.000000,0.500000,1.000000
I1uF609p,200,1, test, 2, 1, 7, 4, 2, 4, 2, 0.65, 0.45, left, 1, 0.35, 0.45, 0.55, 0.65, 0.739666399997077, 1, 5.000000,19.000000,1.000000,6.000000,0.500000,1.000000
I1uF609p,200,1, test, 2, 1, 8, 1, 3, 1, 3, 0.35, 0.55, left, 1, 0.35, 0.45, 0.55, 0.65, 0.4580954999983078, 1, 6.000000,20.000000,1.000000,6.000000,0.500000,1.000000
I1uF609p,200,1, test, 2, 1, 9, 4, 3, 4, 3, 0.65, 0.55, left, 1, 0.35, 0.45, 0.55, 0.65, 1.4848816000012448, 0, 6.000000,20.000000,1.000000,6.000000,0.500000,1.000000
I1uF609p,200,1, test, 2, 1, 10, 4, 3, 4, 3, 0.65, 0.55, left, 1, 0.35, 0.45, 0.55, 0.65, 0.6906362000008812, 0, 6.000000,20.000000,1.000000,6.000000,0.500000,1.000000
I1uF609p,200,1, test, 2, 1, 11, 1, 2, 1, 2, 0.35, 0.45, left, 1, 0.35, 0.45, 0.55, 0.65, 0.5079066999896895, 0, 6.000000,20.000000,1.000000,6.000000,0.500000,1.000000
I1uF609p,200,1, test, 2, 1, 12, 3, 2, 2, 3, 0.55, 0.45, right, 2, 0.35, 0.45, 0.55, 0.65, 2.2435798999940744, 0, 6.000000,20.000000,1.000000,6.000000,0.500000,1.000000
I1uF609p,200,1, test, 2, 1, 13, 3, 2, 2, 3, 0.55, 0.45, right, 2, 0.35, 0.45, 0.55, 0.65, 0.5084970000025351, 1, 7.000000,21.000000,1.000000,6.000000,0.500000,1.000000
I1uF609p,200,1, test, 2, 1, 14, 4, 2, 2, 4, 0.65, 0.45, right, 2, 0.35, 0.45, 0.55, 0.65, 0.5889312000072096, 0, 7.000000,21.000000,1.000000,6.000000,0.500000,1.000000
I1uF609p,200,1, test, 2, 1, 15, 1, 4, 4, 1, 0.35, 0.65, right, 2, 0.35, 0.45, 0.55, 0.65, 0.3187171000026865, 0, 7.000000,21.000000,1.000000,6.000000,0.500000,1.000000
I1uF609p,200,1, test, 2, 1, 16, 2, 1, 1, 2, 0.45, 0.35, right, 2, 0.35, 0.45, 0.55, 0.65, 0.5483756000030553, 1, 8.000000,22.000000,1.000000,6.000000,0.500000,1.000000
I1uF609p,200,1, test, 2, 1, 17, 2, 4, 2, 4, 0.45, 0.65, left, 1, 0.35, 0.45, 0.55, 0.65, 1.2682660999998916, 1, 9.000000,23.000000,1.000000,6.000000,0.500000,1.000000
I1uF609p,200,1, test, 2, 1, 18, 2, 1, 2, 1, 0.45, 0.35, left, 1, 0.35, 0.45, 0.55, 0.65, 1.1108348999987356, 1, 10.000000,24.000000,1.000000,6.000000,0.500000,1.000000
I1uF609p,200,1, test, 2, 1, 19, 3, 4, 3, 4, 0.55, 0.65, left, 1, 0.35, 0.45, 0.55, 0.65, 1.0712764999916544, 0, 10.000000,24.000000,1.000000,6.000000,0.500000,1.000000
I1uF609p,200,1, test, 2, 1, 20, 1, 3, 1, 3, 0.35, 0.55, left, 1, 0.35, 0.45, 0.55, 0.65, 0.4378098000015598, 1, 11.000000,25.000000,1.000000,6.000000,0.500000,1.000000
I1uF609p,200,1, test, 2, 1, 21, 1, 3, 3, 1, 0.35, 0.55, right, 2, 0.35, 0.45, 0.55, 0.65, 0.8158763999963412, 0, 11.000000,25.000000,1.000000,6.000000,0.500000,1.000000
I1uF609p,200,1, test, 2, 1, 22, 1, 3, 1, 3, 0.35, 0.55, left, 1, 0.35, 0.45, 0.55, 0.65, 0.6603333999955794, 0, 11.000000,25.000000,1.000000,6.000000,0.500000,1.000000
I1uF609p,200,1, test, 2, 1, 23, 3, 4, 4, 3, 0.55, 0.65, right, 2, 0.35, 0.45, 0.55, 0.65, 0.4756649000046309, 1, 12.000000,26.000000,1.000000,6.000000,0.500000,1.000000
I1uF609p,200,1, test, 2, 1, 24, 4, 1, 1, 4, 0.65, 0.35, right, 2, 0.35, 0.45, 0.55, 0.65, 1.1288474000029964, 1, 13.000000,27.000000,1.000000,6.000000,0.500000,1.000000
I1uF609p,200,1, test, 2, 1, 25, 3, 1, 3, 1, 0.55, 0.35, left, 1, 0.35, 0.45, 0.55, 0.65, 0.6048885000054725, 0, 13.000000,27.000000,1.000000,6.000000,0.500000,1.000000
I1uF609p,200,1, test, 3, 7, 1, 3, 1, 1, 3, 0.55, 0.35, right, 2, 0.35, 0.45, 0.55, 0.65, 0.7687218999926699, 1, 1.000000,28.000000,1.000000,6.000000,0.500000,1.000000
I1uF609p,200,1, test, 3, 7, 2, 3, 2, 2, 3, 0.55, 0.45, right, 2, 0.35, 0.45, 0.55, 0.65, 0.4311213000037242, 0, 1.000000,28.000000,1.000000,6.000000,0.500000,1.000000
I1uF609p,200,1, test, 3, 7, 3, 4, 2, 4, 2, 0.65, 0.45, left, 1, 0.35, 0.45, 0.55, 0.65, 0.6305704999977024, 1, 2.000000,29.000000,1.000000,6.000000,0.500000,1.000000
I1uF609p,200,1, test, 3, 7, 4, 4, 2, 4, 2, 0.65, 0.45, left, 1, 0.35, 0.45, 0.55, 0.65, 0.5172956000023987, 1, 3.000000,30.000000,1.000000,6.000000,0.500000,1.000000
I1uF609p,200,1, test, 3, 7, 5, 4, 3, 4, 3, 0.65, 0.55, left, 1, 0.35, 0.45, 0.55, 0.65, 1.0727489999990212, 1, 4.000000,31.000000,1.000000,6.000000,0.500000,1.000000
I1uF609p,200,1, test, 3, 7, 6, 3, 1, 3, 1, 0.55, 0.35, left, 1, 0.35, 0.45, 0.55, 0.65, 0.7547769000084372, 1, 5.000000,32.000000,1.000000,6.000000,0.500000,1.000000
I1uF609p,200,1, test, 3, 7, 7, 1, 2, 2, 1, 0.35, 0.45, right, 2, 0.35, 0.45, 0.55, 0.65, 0.8623740000039106, 1, 6.000000,33.000000,1.000000,6.000000,0.500000,1.000000
I1uF609p,200,1, test, 3, 7, 8, 1, 3, 3, 1, 0.35, 0.55, right, 2, 0.35, 0.45, 0.55, 0.65, 1.519959099998232, 1, 7.000000,34.000000,1.000000,6.000000,0.500000,1.000000
I1uF609p,200,1, test, 3, 7, 9, 1, 4, 1, 4, 0.35, 0.65, left, 1, 0.35, 0.45, 0.55, 0.65, 1.352152899999055, 0, 7.000000,34.000000,1.000000,6.000000,0.500000,1.000000
I1uF609p,200,1, test, 3, 7, 10, 2, 1, 2, 1, 0.45, 0.35, left, 1, 0.35, 0.45, 0.55, 0.65, 1.273773799999617, 0, 7.000000,34.000000,1.000000,6.000000,0.500000,1.000000
I1uF609p,200,1, test, 3, 7, 11, 3, 4, 3, 4, 0.55, 0.65, left, 1, 0.35, 0.45, 0.55, 0.65, 1.1121466000040527, 0, 7.000000,34.000000,1.000000,6.000000,0.500000,1.000000
I1uF609p,200,1, test, 3, 7, 12, 4, 2, 4, 2, 0.65, 0.45, left, 1, 0.35, 0.45, 0.55, 0.65, 1.5489324999944074, 0, 7.000000,34.000000,1.000000,6.000000,0.500000,1.000000
I1uF609p,200,1, test, 3, 7, 13, 1, 2, 2, 1, 0.35, 0.45, right, 2, 0.35, 0.45, 0.55, 0.65, 2.0148229000042193, 1, 8.000000,35.000000,1.000000,6.000000,0.500000,1.000000
I1uF609p,200,1, test, 3, 7, 14, 1, 4, 1, 4, 0.35, 0.65, left, 1, 0.35, 0.45, 0.55, 0.65, 0.6785890000028303, 1, 9.000000,36.000000,1.000000,6.000000,0.500000,1.000000
I1uF609p,200,1, test, 3, 7, 15, 1, 2, 2, 1, 0.35, 0.45, right, 2, 0.35, 0.45, 0.55, 0.65, 0.5641260000120383, 1, 10.000000,37.000000,1.000000,6.000000,0.500000,1.000000
I1uF609p,200,1, test, 3, 7, 16, 3, 2, 2, 3, 0.55, 0.45, right, 2, 0.35, 0.45, 0.55, 0.65, 0.602405000012368, 1, 11.000000,38.000000,1.000000,6.000000,0.500000,1.000000
I1uF609p,200,1, test, 3, 7, 17, 4, 1, 1, 4, 0.65, 0.35, right, 2, 0.35, 0.45, 0.55, 0.65, 0.6469149999902584, 1, 12.000000,39.000000,1.000000,6.000000,0.500000,1.000000
I1uF609p,200,1, test, 3, 7, 18, 3, 4, 4, 3, 0.55, 0.65, right, 2, 0.35, 0.45, 0.55, 0.65, 0.5455277000000933, 0, 12.000000,39.000000,1.000000,6.000000,0.500000,1.000000
I1uF609p,200,1, test, 3, 7, 19, 4, 3, 3, 4, 0.65, 0.55, right, 2, 0.35, 0.45, 0.55, 0.65, 0.4206195000006119, 0, 12.000000,39.000000,1.000000,6.000000,0.500000,1.000000
I1uF609p,200,1, test, 3, 7, 20, 3, 4, 4, 3, 0.55, 0.65, right, 2, 0.35, 0.45, 0.55, 0.65, 0.5089451000094414, 1, 13.000000,40.000000,1.000000,6.000000,0.500000,1.000000
I1uF609p,200,1, test, 3, 7, 21, 3, 1, 3, 1, 0.55, 0.35, left, 1, 0.35, 0.45, 0.55, 0.65, 2.213575399990077, 0, 13.000000,40.000000,1.000000,6.000000,0.500000,1.000000
I1uF609p,200,1, test, 3, 7, 22, 4, 2, 4, 2, 0.65, 0.45, left, 1, 0.35, 0.45, 0.55, 0.65, 0.7409564999979921, 1, 14.000000,41.000000,1.000000,6.000000,0.500000,1.000000
I1uF609p,200,1, test, 3, 7, 23, 4, 1, 1, 4, 0.65, 0.35, right, 2, 0.35, 0.45, 0.55, 0.65, 0.4765588000009302, 1, 15.000000,42.000000,1.000000,6.000000,0.500000,1.000000
I1uF609p,200,1, test, 3, 7, 24, 1, 2, 2, 1, 0.35, 0.45, right, 2, 0.35, 0.45, 0.55, 0.65, 0.646333800003049, 0, 15.000000,42.000000,1.000000,6.000000,0.500000,1.000000
I1uF609p,200,1, test, 3, 7, 25, 2, 1, 1, 2, 0.45, 0.35, right, 2, 0.35, 0.45, 0.55, 0.65, 1.1058329999941634, 0, 15.000000,42.000000,1.000000,6.000000,0.500000,1.000000
I1uF609p,200,1, test, 4, 1, 1, 2, 4, 2, 4, 0.45, 0.65, left, 1, 0.35, 0.45, 0.55, 0.65, 0.8272552999987965, 0, 0.000000,42.000000,1.000000,6.000000,0.500000,1.000000
I1uF609p,200,1, test, 4, 1, 2, 4, 1, 4, 1, 0.65, 0.35, left, 1, 0.35, 0.45, 0.55, 0.65, 0.41931289999047294, 1, 1.000000,43.000000,1.000000,6.000000,0.500000,1.000000
I1uF609p,200,1, test, 4, 1, 3, 1, 4, 1, 4, 0.35, 0.65, left, 1, 0.35, 0.45, 0.55, 0.65, 0.3208465000061551, 0, 1.000000,43.000000,1.000000,6.000000,0.500000,1.000000
I1uF609p,200,1, test, 4, 1, 4, 1, 3, 1, 3, 0.35, 0.55, left, 1, 0.35, 0.45, 0.55, 0.65, 0.3232538000011118, 1, 2.000000,44.000000,1.000000,6.000000,0.500000,1.000000
I1uF609p,200,1, test, 4, 1, 5, 2, 4, 2, 4, 0.45, 0.65, left, 1, 0.35, 0.45, 0.55, 0.65, 0.27188079999177717, 0, 2.000000,44.000000,1.000000,6.000000,0.500000,1.000000
I1uF609p,200,1, test, 4, 1, 6, 4, 3, 4, 3, 0.65, 0.55, left, 1, 0.35, 0.45, 0.55, 0.65, 0.26915149998967536, 0, 2.000000,44.000000,1.000000,6.000000,0.500000,1.000000
I1uF609p,200,1, test, 4, 1, 7, 2, 3, 2, 3, 0.45, 0.55, left, 1, 0.35, 0.45, 0.55, 0.65, 0.2715703000139911, 0, 2.000000,44.000000,1.000000,6.000000,0.500000,1.000000
I1uF609p,200,1, test, 4, 1, 8, 1, 3, 1, 3, 0.35, 0.55, left, 1, 0.35, 0.45, 0.55, 0.65, 0.4146762000018498, 0, 2.000000,44.000000,1.000000,6.000000,0.500000,1.000000
I1uF609p,200,1, test, 4, 1, 9, 4, 2, 4, 2, 0.65, 0.45, left, 1, 0.35, 0.45, 0.55, 0.65, 0.2384299999976065, 1, 3.000000,45.000000,1.000000,6.000000,0.500000,1.000000
I1uF609p,200,1, test, 4, 1, 10, 1, 2, 1, 2, 0.35, 0.45, left, 1, 0.35, 0.45, 0.55, 0.65, 0.352814900004887, 0, 3.000000,45.000000,1.000000,6.000000,0.500000,1.000000
I1uF609p,200,1, test, 4, 1, 11, 4, 1, 4, 1, 0.65, 0.35, left, 1, 0.35, 0.45, 0.55, 0.65, 0.26787399999739137, 1, 4.000000,46.000000,1.000000,6.000000,0.500000,1.000000
I1uF609p,200,1, test, 4, 1, 12, 3, 2, 3, 2, 0.55, 0.45, left, 1, 0.35, 0.45, 0.55, 0.65, 0.409750199993141, 0, 4.000000,46.000000,1.000000,6.000000,0.500000,1.000000
I1uF609p,200,1, test, 4, 1, 13, 2, 1, 2, 1, 0.45, 0.35, left, 1, 0.35, 0.45, 0.55, 0.65, 0.2780019999918295, 0, 4.000000,46.000000,1.000000,6.000000,0.500000,1.000000
I1uF609p,200,1, test, 4, 1, 14, 2, 4, 2, 4, 0.45, 0.65, left, 1, 0.35, 0.45, 0.55, 0.65, 0.3204055999958655, 0, 4.000000,46.000000,1.000000,6.000000,0.500000,1.000000
I1uF609p,200,1, test, 4, 1, 15, 1, 3, 1, 3, 0.35, 0.55, left, 1, 0.35, 0.45, 0.55, 0.65, 0.30112480001116637, 0, 4.000000,46.000000,1.000000,6.000000,0.500000,1.000000
I1uF609p,200,1, test, 4, 1, 16, 3, 1, 3, 1, 0.55, 0.35, left, 1, 0.35, 0.45, 0.55, 0.65, 0.29670989999431185, 0, 4.000000,46.000000,1.000000,6.000000,0.500000,1.000000
I1uF609p,200,1, test, 4, 1, 17, 2, 4, 4, 2, 0.45, 0.65, right, 2, 0.35, 0.45, 0.55, 0.65, 1.1059726999956183, 0, 4.000000,46.000000,1.000000,6.000000,0.500000,1.000000
I1uF609p,200,1, test, 4, 1, 18, 2, 4, 2, 4, 0.45, 0.65, left, 1, 0.35, 0.45, 0.55, 0.65, 0.2875562999979593, 1, 5.000000,47.000000,1.000000,6.000000,0.500000,1.000000
I1uF609p,200,1, test, 4, 1, 19, 2, 3, 3, 2, 0.45, 0.55, right, 2, 0.35, 0.45, 0.55, 0.65, 0.3762754000053974, 0, 5.000000,47.000000,1.000000,6.000000,0.500000,1.000000
I1uF609p,200,1, test, 4, 1, 20, 3, 2, 3, 2, 0.55, 0.45, left, 1, 0.35, 0.45, 0.55, 0.65, 0.2868706999870483, 1, 6.000000,48.000000,1.000000,6.000000,0.500000,1.000000
I1uF609p,200,1, test, 4, 1, 21, 4, 2, 4, 2, 0.65, 0.45, left, 1, 0.35, 0.45, 0.55, 0.65, 0.5429819999990286, 0, 6.000000,48.000000,1.000000,6.000000,0.500000,1.000000
I1uF609p,200,1, test, 4, 1, 22, 2, 3, 3, 2, 0.45, 0.55, right, 2, 0.35, 0.45, 0.55, 0.65, 0.8588126999966335, 0, 6.000000,48.000000,1.000000,6.000000,0.500000,1.000000
I1uF609p,200,1, test, 4, 1, 23, 4, 2, 2, 4, 0.65, 0.45, right, 2, 0.35, 0.45, 0.55, 0.65, 1.1021397000004072, 0, 6.000000,48.000000,1.000000,6.000000,0.500000,1.000000
I1uF609p,200,1, test, 4, 1, 24, 3, 1, 3, 1, 0.55, 0.35, left, 1, 0.35, 0.45, 0.55, 0.65, 0.2339503999974113, 1, 7.000000,49.000000,1.000000,6.000000,0.500000,1.000000
I1uF609p,200,1, test, 4, 1, 25, 2, 4, 2, 4, 0.45, 0.65, left, 1, 0.35, 0.45, 0.55, 0.65, 0.2981787000026088, 1, 8.000000,50.000000,1.000000,6.000000,0.500000,1.000000
I1uF609p,200,1, test, 5, 7, 1, 4, 3, 3, 4, 0.65, 0.55, right, 2, 0.35, 0.45, 0.55, 0.65, 1.1963404999987688, 0, 0.000000,50.000000,1.000000,6.000000,0.500000,1.000000
I1uF609p,200,1, test, 5, 7, 2, 1, 2, 1, 2, 0.35, 0.45, left, 1, 0.35, 0.45, 0.55, 0.65, 0.6688602999929572, 0, 0.000000,50.000000,1.000000,6.000000,0.500000,1.000000
I1uF609p,200,1, test, 5, 7, 3, 1, 2, 2, 1, 0.35, 0.45, right, 2, 0.35, 0.45, 0.55, 0.65, 0.4109777999983635, 1, 1.000000,51.000000,1.000000,6.000000,0.500000,1.000000
I1uF609p,200,1, test, 5, 7, 4, 1, 3, 1, 3, 0.35, 0.55, left, 1, 0.35, 0.45, 0.55, 0.65, 0.8518579999945359, 1, 2.000000,52.000000,1.000000,6.000000,0.500000,1.000000
I1uF609p,200,1, test, 5, 7, 5, 1, 2, 2, 1, 0.35, 0.45, right, 2, 0.35, 0.45, 0.55, 0.65, 0.47306530000059865, 0, 2.000000,52.000000,1.000000,6.000000,0.500000,1.000000
I1uF609p,200,1, test, 5, 7, 6, 2, 1, 2, 1, 0.45, 0.35, left, 1, 0.35, 0.45, 0.55, 0.65, 0.4513370000058785, 1, 3.000000,53.000000,1.000000,6.000000,0.500000,1.000000
I1uF609p,200,1, test, 5, 7, 7, 2, 4, 4, 2, 0.45, 0.65, right, 2, 0.35, 0.45, 0.55, 0.65, 1.4910360000067158, 0, 3.000000,53.000000,1.000000,6.000000,0.500000,1.000000
I1uF609p,200,1, test, 5, 7, 8, 4, 3, 3, 4, 0.65, 0.55, right, 2, 0.35, 0.45, 0.55, 0.65, 0.7549791000055848, 1, 4.000000,54.000000,1.000000,6.000000,0.500000,1.000000
I1uF609p,200,1, test, 5, 7, 9, 2, 1, 2, 1, 0.45, 0.35, left, 1, 0.35, 0.45, 0.55, 0.65, 0.4751915000088047, 1, 5.000000,55.000000,1.000000,6.000000,0.500000,1.000000
I1uF609p,200,1, test, 5, 7, 10, 3, 4, 4, 3, 0.55, 0.65, right, 2, 0.35, 0.45, 0.55, 0.65, 0.8970609999960288, 0, 5.000000,55.000000,1.000000,6.000000,0.500000,1.000000
I1uF609p,200,1, test, 5, 7, 11, 2, 1, 2, 1, 0.45, 0.35, left, 1, 0.35, 0.45, 0.55, 0.65, 0.6418135999992955, 0, 5.000000,55.000000,1.000000,6.000000,0.500000,1.000000
I1uF609p,200,1, test, 5, 7, 12, 4, 3, 3, 4, 0.65, 0.55, right, 2, 0.35, 0.45, 0.55, 0.65, 1.0913741000113077, 1, 6.000000,56.000000,1.000000,6.000000,0.500000,1.000000
I1uF609p,200,1, test, 5, 7, 13, 4, 3, 4, 3, 0.65, 0.55, left, 1, 0.35, 0.45, 0.55, 0.65, 0.6413908999966225, 0, 6.000000,56.000000,1.000000,6.000000,0.500000,1.000000
I1uF609p,200,1, test, 5, 7, 14, 2, 3, 3, 2, 0.45, 0.55, right, 2, 0.35, 0.45, 0.55, 0.65, 0.5561544000083813, 1, 7.000000,57.000000,1.000000,6.000000,0.500000,1.000000
I1uF609p,200,1, test, 5, 7, 15, 1, 3, 3, 1, 0.35, 0.55, right, 2, 0.35, 0.45, 0.55, 0.65, 0.5004839999892283, 1, 8.000000,58.000000,1.000000,6.000000,0.500000,1.000000
I1uF609p,200,1, test, 5, 7, 16, 2, 4, 4, 2, 0.45, 0.65, right, 2, 0.35, 0.45, 0.55, 0.65, 0.4290960999933304, 1, 9.000000,59.000000,1.000000,6.000000,0.500000,1.000000
I1uF609p,200,1, test, 5, 7, 17, 3, 1, 1, 3, 0.55, 0.35, right, 2, 0.35, 0.45, 0.55, 0.65, 0.48034300000290386, 1, 10.000000,60.000000,1.000000,6.000000,0.500000,1.000000
I1uF609p,200,1, test, 5, 7, 18, 3, 1, 1, 3, 0.55, 0.35, right, 2, 0.35, 0.45, 0.55, 0.65, 0.7405393000080949, 1, 11.000000,61.000000,1.000000,6.000000,0.500000,1.000000
I1uF609p,200,1, test, 5, 7, 19, 4, 3, 3, 4, 0.65, 0.55, right, 2, 0.35, 0.45, 0.55, 0.65, 0.6406311000027927, 0, 11.000000,61.000000,1.000000,6.000000,0.500000,1.000000
I1uF609p,200,1, test, 5, 7, 20, 4, 2, 2, 4, 0.65, 0.45, right, 2, 0.35, 0.45, 0.55, 0.65, 0.6510429000045406, 1, 12.000000,62.000000,1.000000,6.000000,0.500000,1.000000
I1uF609p,200,1, test, 5, 7, 21, 4, 2, 2, 4, 0.65, 0.45, right, 2, 0.35, 0.45, 0.55, 0.65, 0.40105580000090413, 1, 13.000000,63.000000,1.000000,6.000000,0.500000,1.000000
I1uF609p,200,1, test, 5, 7, 22, 4, 3, 3, 4, 0.65, 0.55, right, 2, 0.35, 0.45, 0.55, 0.65, 0.6225111999956425, 1, 14.000000,64.000000,1.000000,6.000000,0.500000,1.000000
I1uF609p,200,1, test, 5, 7, 23, 4, 3, 3, 4, 0.65, 0.55, right, 2, 0.35, 0.45, 0.55, 0.65, 0.22697479999624193, 0, 14.000000,64.000000,1.000000,6.000000,0.500000,1.000000
I1uF609p,200,1, test, 5, 7, 24, 4, 3, 3, 4, 0.65, 0.55, right, 2, 0.35, 0.45, 0.55, 0.65, 0.37379969999892637, 1, 15.000000,65.000000,1.000000,6.000000,0.500000,1.000000
I1uF609p,200,1, test, 5, 7, 25, 3, 4, 4, 3, 0.55, 0.65, right, 2, 0.35, 0.45, 0.55, 0.65, 0.46765740000410005, 0, 15.000000,65.000000,1.000000,6.000000,0.500000,1.000000
I1uF609p,200,1, test, 6, 1, 1, 4, 1, 1, 4, 0.65, 0.35, right, 2, 0.35, 0.45, 0.55, 0.65, 0.8392487999954028, 1, 1.000000,66.000000,1.000000,6.000000,0.500000,1.000000
I1uF609p,200,1, test, 6, 1, 2, 4, 2, 4, 2, 0.65, 0.45, left, 1, 0.35, 0.45, 0.55, 0.65, 0.41418520000297576, 1, 2.000000,67.000000,1.000000,6.000000,0.500000,1.000000
I1uF609p,200,1, test, 6, 1, 3, 1, 2, 2, 1, 0.35, 0.45, right, 2, 0.35, 0.45, 0.55, 0.65, 0.6066404000011971, 0, 2.000000,67.000000,1.000000,6.000000,0.500000,1.000000
I1uF609p,200,1, test, 6, 1, 4, 1, 4, 4, 1, 0.35, 0.65, right, 2, 0.35, 0.45, 0.55, 0.65, 0.4508466999977827, 0, 2.000000,67.000000,1.000000,6.000000,0.500000,1.000000
I1uF609p,200,1, test, 6, 1, 5, 3, 2, 3, 2, 0.55, 0.45, left, 1, 0.35, 0.45, 0.55, 0.65, 2.913491100000101, 1, 3.000000,68.000000,1.000000,6.000000,0.500000,1.000000
I1uF609p,200,1, test, 6, 1, 6, 4, 2, 4, 2, 0.65, 0.45, left, 1, 0.35, 0.45, 0.55, 0.65, 0.6910731000098167, 1, 4.000000,69.000000,1.000000,6.000000,0.500000,1.000000
I1uF609p,200,1, test, 6, 1, 7, 4, 3, 4, 3, 0.65, 0.55, left, 1, 0.35, 0.45, 0.55, 0.65, 0.47200080000038724, 1, 5.000000,70.000000,1.000000,6.000000,0.500000,1.000000
I1uF609p,200,1, test, 6, 1, 8, 3, 1, 1, 3, 0.55, 0.35, right, 2, 0.35, 0.45, 0.55, 0.65, 0.517304699998931, 1, 6.000000,71.000000,1.000000,6.000000,0.500000,1.000000
I1uF609p,200,1, test, 6, 1, 9, 3, 2, 3, 2, 0.55, 0.45, left, 1, 0.35, 0.45, 0.55, 0.65, 0.3532121000025654, 0, 6.000000,71.000000,1.000000,6.000000,0.500000,1.000000
I1uF609p,200,1, test, 6, 1, 10, 3, 1, 3, 1, 0.55, 0.35, left, 1, 0.35, 0.45, 0.55, 0.65, 0.5800262999982806, 0, 6.000000,71.000000,1.000000,6.000000,0.500000,1.000000
I1uF609p,200,1, test, 6, 1, 11, 2, 1, 1, 2, 0.45, 0.35, right, 2, 0.35, 0.45, 0.55, 0.65, 0.4607737000042107, 1, 7.000000,72.000000,1.000000,6.000000,0.500000,1.000000
I1uF609p,200,1, test, 6, 1, 12, 2, 4, 4, 2, 0.45, 0.65, right, 2, 0.35, 0.45, 0.55, 0.65, 2.5963097999920137, 0, 7.000000,72.000000,1.000000,6.000000,0.500000,1.000000
I1uF609p,200,1, test, 6, 1, 13, 2, 4, 2, 4, 0.45, 0.65, left, 1, 0.35, 0.45, 0.55, 0.65, 0.45316090001142584, 0, 7.000000,72.000000,1.000000,6.000000,0.500000,1.000000
I1uF609p,200,1, test, 6, 1, 14, 4, 1, 1, 4, 0.65, 0.35, right, 2, 0.35, 0.45, 0.55, 0.65, 0.3245392999961041, 0, 7.000000,72.000000,1.000000,6.000000,0.500000,1.000000
I1uF609p,200,1, test, 6, 1, 15, 3, 2, 3, 2, 0.55, 0.45, left, 1, 0.35, 0.45, 0.55, 0.65, 0.46054559999902267, 1, 8.000000,73.000000,1.000000,6.000000,0.500000,1.000000
I1uF609p,200,1, test, 6, 1, 16, 1, 2, 2, 1, 0.35, 0.45, right, 2, 0.35, 0.45, 0.55, 0.65, 0.48104920001060236, 1, 9.000000,74.000000,1.000000,6.000000,0.500000,1.000000
I1uF609p,200,1, test, 6, 1, 17, 4, 1, 4, 1, 0.65, 0.35, left, 1, 0.35, 0.45, 0.55, 0.65, 0.2871930999972392, 1, 10.000000,75.000000,1.000000,6.000000,0.500000,1.000000
I1uF609p,200,1, test, 6, 1, 18, 3, 1, 3, 1, 0.55, 0.35, left, 1, 0.35, 0.45, 0.55, 0.65, 0.7446611000050325, 1, 11.000000,76.000000,1.000000,6.000000,0.500000,1.000000
I1uF609p,200,1, test, 6, 1, 19, 3, 1, 3, 1, 0.55, 0.35, left, 1, 0.35, 0.45, 0.55, 0.65, 0.35255290000350215, 0, 11.000000,76.000000,1.000000,6.000000,0.500000,1.000000
I1uF609p,200,1, test, 6, 1, 20, 4, 3, 3, 4, 0.65, 0.55, right, 2, 0.35, 0.45, 0.55, 0.65, 0.4474536000052467, 0, 11.000000,76.000000,1.000000,6.000000,0.500000,1.000000
I1uF609p,200,1, test, 6, 1, 21, 3, 2, 2, 3, 0.55, 0.45, right, 2, 0.35, 0.45, 0.55, 0.65, 0.5292077999911271, 0, 11.000000,76.000000,1.000000,6.000000,0.500000,1.000000
I1uF609p,200,1, test, 6, 1, 22, 3, 1, 1, 3, 0.55, 0.35, right, 2, 0.35, 0.45, 0.55, 0.65, 0.6372630999976536, 1, 12.000000,77.000000,1.000000,6.000000,0.500000,1.000000
I1uF609p,200,1, test, 6, 1, 23, 4, 2, 2, 4, 0.65, 0.45, right, 2, 0.35, 0.45, 0.55, 0.65, 0.5684251000056975, 1, 13.000000,78.000000,1.000000,6.000000,0.500000,1.000000
I1uF609p,200,1, test, 6, 1, 24, 4, 3, 3, 4, 0.65, 0.55, right, 2, 0.35, 0.45, 0.55, 0.65, 0.41034420000505634, 1, 14.000000,79.000000,1.000000,6.000000,0.500000,1.000000
I1uF609p,200,1, test, 6, 1, 25, 3, 2, 2, 3, 0.55, 0.45, right, 2, 0.35, 0.45, 0.55, 0.65, 0.9705520999996224, 0, 14.000000,79.000000,1.000000,6.000000,0.500000,1.000000
I1uF609p,200,1, test, 7, 7, 1, 1, 4, 4, 1, 0.35, 0.65, right, 2, 0.35, 0.45, 0.55, 0.65, 0.7052150999952573, 0, 0.000000,79.000000,1.000000,6.000000,0.500000,1.000000
I1uF609p,200,1, test, 7, 7, 2, 4, 2, 2, 4, 0.65, 0.45, right, 2, 0.35, 0.45, 0.55, 0.65, 0.9657011999952374, 0, 0.000000,79.000000,1.000000,6.000000,0.500000,1.000000
I1uF609p,200,1, test, 7, 7, 3, 2, 4, 4, 2, 0.45, 0.65, right, 2, 0.35, 0.45, 0.55, 0.65, 0.473643200006336, 1, 1.000000,80.000000,1.000000,6.000000,0.500000,1.000000
I1uF609p,200,1, test, 7, 7, 4, 1, 3, 1, 3, 0.35, 0.55, left, 1, 0.35, 0.45, 0.55, 0.65, 0.7777117999939946, 0, 1.000000,80.000000,1.000000,6.000000,0.500000,1.000000
I1uF609p,200,1, test, 7, 7, 5, 1, 4, 1, 4, 0.35, 0.65, left, 1, 0.35, 0.45, 0.55, 0.65, 0.4122526999999536, 1, 2.000000,81.000000,1.000000,6.000000,0.500000,1.000000
I1uF609p,200,1, test, 7, 7, 6, 1, 2, 1, 2, 0.35, 0.45, left, 1, 0.35, 0.45, 0.55, 0.65, 0.41440110000257846, 0, 2.000000,81.000000,1.000000,6.000000,0.500000,1.000000
I1uF609p,200,1, test, 7, 7, 7, 1, 3, 3, 1, 0.35, 0.55, right, 2, 0.35, 0.45, 0.55, 0.65, 0.5877493000007235, 0, 2.000000,81.000000,1.000000,6.000000,0.500000,1.000000
I1uF609p,200,1, test, 7, 7, 8, 1, 2, 2, 1, 0.35, 0.45, right, 2, 0.35, 0.45, 0.55, 0.65, 0.8291581999947084, 0, 2.000000,81.000000,1.000000,6.000000,0.500000,1.000000
I1uF609p,200,1, test, 7, 7, 9, 3, 4, 3, 4, 0.55, 0.65, left, 1, 0.35, 0.45, 0.55, 0.65, 0.49207019999448676, 1, 3.000000,82.000000,1.000000,6.000000,0.500000,1.000000
I1uF609p,200,1, test, 7, 7, 10, 3, 4, 4, 3, 0.55, 0.65, right, 2, 0.35, 0.45, 0.55, 0.65, 0.441095200003474, 0, 3.000000,82.000000,1.000000,6.000000,0.500000,1.000000
I1uF609p,200,1, test, 7, 7, 11, 3, 1, 3, 1, 0.55, 0.35, left, 1, 0.35, 0.45, 0.55, 0.65, 0.5190398999984609, 0, 3.000000,82.000000,1.000000,6.000000,0.500000,1.000000
I1uF609p,200,1, test, 7, 7, 12, 3, 2, 3, 2, 0.55, 0.45, left, 1, 0.35, 0.45, 0.55, 0.65, 0.523657000012463, 1, 4.000000,83.000000,1.000000,6.000000,0.500000,1.000000
I1uF609p,200,1, test, 7, 7, 13, 4, 2, 4, 2, 0.65, 0.45, left, 1, 0.35, 0.45, 0.55, 0.65, 0.8555707000050461, 1, 5.000000,84.000000,1.000000,6.000000,0.500000,1.000000
I1uF609p,200,1, test, 7, 7, 14, 4, 1, 1, 4, 0.65, 0.35, right, 2, 0.35, 0.45, 0.55, 0.65, 0.5543302999867592, 1, 6.000000,85.000000,1.000000,6.000000,0.500000,1.000000
I1uF609p,200,1, test, 7, 7, 15, 4, 3, 3, 4, 0.65, 0.55, right, 2, 0.35, 0.45, 0.55, 0.65, 0.513072399990051, 1, 7.000000,86.000000,1.000000,6.000000,0.500000,1.000000
I1uF609p,200,1, test, 7, 7, 16, 4, 3, 3, 4, 0.65, 0.55, right, 2, 0.35, 0.45, 0.55, 0.65, 0.3699722000019392, 1, 8.000000,87.000000,1.000000,6.000000,0.500000,1.000000
I1uF609p,200,1, test, 7, 7, 17, 1, 3, 3, 1, 0.35, 0.55, right, 2, 0.35, 0.45, 0.55, 0.65, 2.9030081999953836, 0, 8.000000,87.000000,1.000000,6.000000,0.500000,1.000000
I1uF609p,200,1, test, 7, 7, 18, 3, 1, 3, 1, 0.55, 0.35, left, 1, 0.35, 0.45, 0.55, 0.65, 0.5187328000029083, 1, 9.000000,88.000000,1.000000,6.000000,0.500000,1.000000
I1uF609p,200,1, test, 7, 7, 19, 1, 2, 1, 2, 0.35, 0.45, left, 1, 0.35, 0.45, 0.55, 0.65, 0.5669100999948569, 0, 9.000000,88.000000,1.000000,6.000000,0.500000,1.000000
I1uF609p,200,1, test, 7, 7, 20, 2, 4, 2, 4, 0.45, 0.65, left, 1, 0.35, 0.45, 0.55, 0.65, 0.886431699997047, 1, 10.000000,89.000000,1.000000,6.000000,0.500000,1.000000
I1uF609p,200,1, test, 7, 7, 21, 1, 4, 4, 1, 0.35, 0.65, right, 2, 0.35, 0.45, 0.55, 0.65, 1.0552849999949103, 0, 10.000000,89.000000,1.000000,6.000000,0.500000,1.000000
I1uF609p,200,1, test, 7, 7, 22, 3, 2, 2, 3, 0.55, 0.45, right, 2, 0.35, 0.45, 0.55, 0.65, 0.9507352999935392, 1, 11.000000,90.000000,1.000000,6.000000,0.500000,1.000000
I1uF609p,200,1, test, 7, 7, 23, 4, 2, 4, 2, 0.65, 0.45, left, 1, 0.35, 0.45, 0.55, 0.65, 0.6357604000077117, 1, 12.000000,91.000000,1.000000,6.000000,0.500000,1.000000
I1uF609p,200,1, test, 7, 7, 24, 4, 2, 4, 2, 0.65, 0.45, left, 1, 0.35, 0.45, 0.55, 0.65, 0.5319701999978861, 0, 12.000000,91.000000,1.000000,6.000000,0.500000,1.000000
I1uF609p,200,1, test, 7, 7, 25, 3, 2, 3, 2, 0.55, 0.45, left, 1, 0.35, 0.45, 0.55, 0.65, 0.6229536999890115, 1, 13.000000,92.000000,1.000000,6.000000,0.500000,1.000000
I1uF609p,200,1, test, 8, 1, 1, 4, 3, 3, 4, 0.65, 0.55, right, 2, 0.35, 0.45, 0.55, 0.65, 2.808449300006032, 1, 1.000000,93.000000,1.000000,6.000000,0.500000,1.000000
I1uF609p,200,1, test, 8, 1, 2, 2, 3, 2, 3, 0.45, 0.55, left, 1, 0.35, 0.45, 0.55, 0.65, 1.1173700999934226, 1, 2.000000,94.000000,1.000000,6.000000,0.500000,1.000000
I1uF609p,200,1, test, 8, 1, 3, 2, 3, 2, 3, 0.45, 0.55, left, 1, 0.35, 0.45, 0.55, 0.65, 5.592159899999388, 1, 3.000000,95.000000,1.000000,6.000000,0.500000,1.000000
I1uF609p,200,1, test, 8, 1, 4, 2, 1, 1, 2, 0.45, 0.35, right, 2, 0.35, 0.45, 0.55, 0.65, 1.334069400007138, 1, 4.000000,96.000000,1.000000,6.000000,0.500000,1.000000
I1uF609p,200,1, test, 8, 1, 5, 2, 1, 2, 1, 0.45, 0.35, left, 1, 0.35, 0.45, 0.55, 0.65, 0.6697524999908637, 1, 5.000000,97.000000,1.000000,6.000000,0.500000,1.000000
I1uF609p,200,1, test, 8, 1, 6, 4, 3, 4, 3, 0.65, 0.55, left, 1, 0.35, 0.45, 0.55, 0.65, 3.303995299997041, 1, 6.000000,98.000000,1.000000,6.000000,0.500000,1.000000
I1uF609p,200,1, test, 8, 1, 7, 3, 1, 1, 3, 0.55, 0.35, right, 2, 0.35, 0.45, 0.55, 0.65, 0.9519582000066293, 1, 7.000000,99.000000,1.000000,6.000000,0.500000,1.000000
I1uF609p,200,1, test, 8, 1, 8, 2, 1, 1, 2, 0.45, 0.35, right, 2, 0.35, 0.45, 0.55, 0.65, 0.8625468000100227, 1, 8.000000,100.000000,1.000000,6.000000,0.500000,1.000000
I1uF609p,200,1, test, 8, 1, 9, 3, 1, 1, 3, 0.55, 0.35, right, 2, 0.35, 0.45, 0.55, 0.65, 1.0518649999867193, 0, 8.000000,100.000000,1.000000,6.000000,0.500000,1.000000
I1uF609p,200,1, test, 8, 1, 10, 4, 1, 4, 1, 0.65, 0.35, left, 1, 0.35, 0.45, 0.55, 0.65, 0.7422905999992508, 1, 9.000000,101.000000,1.000000,6.000000,0.500000,1.000000
I1uF609p,200,1, test, 8, 1, 11, 2, 1, 2, 1, 0.45, 0.35, left, 1, 0.35, 0.45, 0.55, 0.65, 0.49375910000526346, 0, 9.000000,101.000000,1.000000,6.000000,0.500000,1.000000
I1uF609p,200,1, test, 8, 1, 12, 2, 1, 1, 2, 0.45, 0.35, right, 2, 0.35, 0.45, 0.55, 0.65, 0.6471164999966277, 0, 9.000000,101.000000,1.000000,6.000000,0.500000,1.000000
I1uF609p,200,1, test, 8, 1, 13, 4, 3, 3, 4, 0.65, 0.55, right, 2, 0.35, 0.45, 0.55, 0.65, 1.2183048000006238, 0, 9.000000,101.000000,1.000000,6.000000,0.500000,1.000000
I1uF609p,200,1, test, 8, 1, 14, 4, 3, 4, 3, 0.65, 0.55, left, 1, 0.35, 0.45, 0.55, 0.65, 0.35505349999584723, 0, 9.000000,101.000000,1.000000,6.000000,0.500000,1.000000
I1uF609p,200,1, test, 8, 1, 15, 4, 3, 3, 4, 0.65, 0.55, right, 2, 0.35, 0.45, 0.55, 0.65, 0.4242637999996077, 0, 9.000000,101.000000,1.000000,6.000000,0.500000,1.000000
I1uF609p,200,1, test, 8, 1, 16, 2, 1, 2, 1, 0.45, 0.35, left, 1, 0.35, 0.45, 0.55, 0.65, 0.28154160000849515, 0, 9.000000,101.000000,1.000000,6.000000,0.500000,1.000000
I1uF609p,200,1, test, 8, 1, 17, 3, 1, 1, 3, 0.55, 0.35, right, 2, 0.35, 0.45, 0.55, 0.65, 0.3221408999961568, 1, 10.000000,102.000000,1.000000,6.000000,0.500000,1.000000
I1uF609p,200,1, test, 8, 1, 18, 2, 4, 2, 4, 0.45, 0.65, left, 1, 0.35, 0.45, 0.55, 0.65, 0.5832601000001887, 1, 11.000000,103.000000,1.000000,6.000000,0.500000,1.000000
I1uF609p,200,1, test, 8, 1, 19, 2, 1, 2, 1, 0.45, 0.35, left, 1, 0.35, 0.45, 0.55, 0.65, 0.5355383999994956, 0, 11.000000,103.000000,1.000000,6.000000,0.500000,1.000000
I1uF609p,200,1, test, 8, 1, 20, 4, 1, 1, 4, 0.65, 0.35, right, 2, 0.35, 0.45, 0.55, 0.65, 0.2621140999981435, 1, 12.000000,104.000000,1.000000,6.000000,0.500000,1.000000
I1uF609p,200,1, test, 8, 1, 21, 2, 1, 2, 1, 0.45, 0.35, left, 1, 0.35, 0.45, 0.55, 0.65, 0.3175238999974681, 0, 12.000000,104.000000,1.000000,6.000000,0.500000,1.000000
I1uF609p,200,1, test, 8, 1, 22, 4, 2, 2, 4, 0.65, 0.45, right, 2, 0.35, 0.45, 0.55, 0.65, 0.49428749999788124, 1, 13.000000,105.000000,1.000000,6.000000,0.500000,1.000000
I1uF609p,200,1, test, 8, 1, 23, 4, 1, 4, 1, 0.65, 0.35, left, 1, 0.35, 0.45, 0.55, 0.65, 0.2392313999880571, 1, 14.000000,106.000000,1.000000,6.000000,0.500000,1.000000
I1uF609p,200,1, test, 8, 1, 24, 3, 4, 4, 3, 0.55, 0.65, right, 2, 0.35, 0.45, 0.55, 0.65, 0.5385677000012947, 0, 14.000000,106.000000,1.000000,6.000000,0.500000,1.000000
I1uF609p,200,1, test, 8, 1, 25, 2, 4, 4, 2, 0.45, 0.65, right, 2, 0.35, 0.45, 0.55, 0.65, 0.6774494999990566, 0, 14.000000,106.000000,1.000000,6.000000,0.500000,1.000000
