ShaharID, group, counterbalance, block_type, block, delay_condition, trial, chosen, unchosen, offer_left_image, offer_right_image, exp_value_chosen, exp_value_unchosen, choice_location, choice_key, exp_value1, exp_value2, exp_value3, exp_value4, RT, reward, coins_per_block, coins_per_task,ITI_duration,rt_deadline,choice_feedback_duration,outcome_duration
Dafq7m1z,200,1, practice, 1, 1, 1
Dafq7m1z,200,1, practice, 1, 1, 2, 2, 3, 3, 2, 0.45, 0.55, right, 2, 0.35, 0.45, 0.55, 0.65, 1.3031023000366986, 0, 0.000000,0.000000,1.000000,6.000000,0.500000,1.000000
Dafq7m1z,200,1, practice, 1, 1, 3, 3, 1, 1, 3, 0.55, 0.35, right, 2, 0.35, 0.45, 0.55, 0.65, 0.907737199915573, 0, 0.000000,0.000000,1.000000,6.000000,0.500000,1.000000
Dafq7m1z,200,1, practice, 1, 1, 4, 3, 1, 1, 3, 0.55, 0.35, right, 2, 0.35, 0.45, 0.55, 0.65, 1.8206648998893797, 0, 0.000000,0.000000,1.000000,6.000000,0.500000,1.000000
Dafq7m1z,200,1, practice, 1, 1, 5, 3, 1, 3, 1, 0.55, 0.35, left, 1, 0.35, 0.45, 0.55, 0.65, 2.1240057998802513, 1, 1.000000,1.000000,1.000000,6.000000,0.500000,1.000000
Dafq7m1z,200,1, test, 1, 7, 1, 3, 4, 4, 3, 0.55, 0.65, right, 2, 0.35, 0.45, 0.55, 0.65, 0.9144144998863339, 1, 1.000000,2.000000,1.000000,6.000000,0.500000,1.000000
Dafq7m1z,200,1, test, 1, 7, 2, 1, 2, 1, 2, 0.35, 0.45, left, 1, 0.35, 0.45, 0.55, 0.65, 1.5607580000068992, 0, 1.000000,2.000000,1.000000,6.000000,0.500000,1.000000
Dafq7m1z,200,1, test, 1, 7, 3, 2, 3, 3, 2, 0.45, 0.55, right, 2, 0.35, 0.45, 0.55, 0.65, 2.4920729999430478, 0, 1.000000,2.000000,1.000000,6.000000,0.500000,1.000000
Dafq7m1z,200,1, test, 1, 7, 4, 3, 4, 3, 4, 0.55, 0.65, left, 1, 0.35, 0.45, 0.55, 0.65, 3.174414200009778, 0, 1.000000,2.000000,1.000000,6.000000,0.500000,1.000000
Dafq7m1z,200,1, test, 1, 7, 5, 1, 3, 1, 3, 0.35, 0.55, left, 1, 0.35, 0.45, 0.55, 0.65, 2.8553291000425816, 0, 1.000000,2.000000,1.000000,6.000000,0.500000,1.000000
Dafq7m1z,200,1, test, 1, 7, 6, 4, 3, 4, 3, 0.65, 0.55, left, 1, 0.35, 0.45, 0.55, 0.65, 1.3350420999340713, 1, 2.000000,3.000000,1.000000,6.000000,0.500000,1.000000
Dafq7m1z,200,1, test, 1, 7, 7, 3, 1, 3, 1, 0.55, 0.35, left, 1, 0.35, 0.45, 0.55, 0.65, 1.5079393999185413, 0, 2.000000,3.000000,1.000000,6.000000,0.500000,1.000000
Dafq7m1z,200,1, test, 1, 7, 8, 2, 3, 3, 2, 0.45, 0.55, right, 2, 0.35, 0.45, 0.55, 0.65, 0.5070513999089599, 0, 2.000000,3.000000,1.000000,6.000000,0.500000,1.000000
Dafq7m1z,200,1, test, 1, 7, 9, 4, 2, 2, 4, 0.65, 0.45, right, 2, 0.35, 0.45, 0.55, 0.65, 0.8152277001645416, 0, 2.000000,3.000000,1.000000,6.000000,0.500000,1.000000
Dafq7m1z,200,1, test, 1, 7, 10, 2, 4, 4, 2, 0.45, 0.65, right, 2, 0.35, 0.45, 0.55, 0.65, 0.5276944001670927, 1, 3.000000,4.000000,1.000000,6.000000,0.500000,1.000000
Dafq7m1z,200,1, test, 1, 7, 11, 2, 1, 1, 2, 0.45, 0.35, right, 2, 0.35, 0.45, 0.55, 0.65, 0.5773591999895871, 0, 3.000000,4.000000,1.000000,6.000000,0.500000,1.000000
Dafq7m1z,200,1, test, 1, 7, 12, 4, 2, 4, 2, 0.65, 0.45, left, 1, 0.35, 0.45, 0.55, 0.65, 0.411385300103575, 0, 3.000000,4.000000,1.000000,6.000000,0.500000,1.000000
Dafq7m1z,200,1, test, 1, 7, 13, 2, 1, 2, 1, 0.45, 0.35, left, 1, 0.35, 0.45, 0.55, 0.65, 0.9080354999750853, 1, 4.000000,5.000000,1.000000,6.000000,0.500000,1.000000
Dafq7m1z,200,1, test, 1, 7, 14, 1, 2, 2, 1, 0.35, 0.45, right, 2, 0.35, 0.45, 0.55, 0.65, 3.4966712000314146, 0, 4.000000,5.000000,1.000000,6.000000,0.500000,1.000000
Dafq7m1z,200,1, test, 1, 7, 15, 2, 4, 2, 4, 0.45, 0.65, left, 1, 0.35, 0.45, 0.55, 0.65, 1.0061979999300092, 0, 4.000000,5.000000,1.000000,6.000000,0.500000,1.000000
Dafq7m1z,200,1, test, 1, 7, 16, 1, 3, 3, 1, 0.35, 0.55, right, 2, 0.35, 0.45, 0.55, 0.65, 0.7501044999808073, 1, 5.000000,6.000000,1.000000,6.000000,0.500000,1.000000
Dafq7m1z,200,1, test, 1, 7, 17, 4, 1, 4, 1, 0.65, 0.35, left, 1, 0.35, 0.45, 0.55, 0.65, 2.3937632001470774, 0, 5.000000,6.000000,1.000000,6.000000,0.500000,1.000000
Dafq7m1z,200,1, test, 1, 7, 18, 3, 4, 4, 3, 0.55, 0.65, right, 2, 0.35, 0.45, 0.55, 0.65, 3.7127107998821884, 1, 6.000000,7.000000,1.000000,6.000000,0.500000,1.000000
Dafq7m1z,200,1, test, 1, 7, 19, 2, 1, 2, 1, 0.45, 0.35, left, 1, 0.35, 0.45, 0.55, 0.65, 2.0567367000039667, 0, 6.000000,7.000000,1.000000,6.000000,0.500000,1.000000
Dafq7m1z,200,1, test, 1, 7, 20, 3, 1, 3, 1, 0.55, 0.35, left, 1, 0.35, 0.45, 0.55, 0.65, 1.4753248998895288, 0, 6.000000,7.000000,1.000000,6.000000,0.500000,1.000000
Dafq7m1z,200,1, test, 1, 7, 21, 4, 3, 3, 4, 0.65, 0.55, right, 2, 0.35, 0.45, 0.55, 0.65, 0.7373960001859814, 0, 6.000000,7.000000,1.000000,6.000000,0.500000,1.000000
Dafq7m1z,200,1, test, 1, 7, 22, 3, 1, 1, 3, 0.55, 0.35, right, 2, 0.35, 0.45, 0.55, 0.65, 1.2927242000587285, 0, 6.000000,7.000000,1.000000,6.000000,0.500000,1.000000
Dafq7m1z,200,1, test, 1, 7, 23, 4, 1, 4, 1, 0.65, 0.35, left, 1, 0.35, 0.45, 0.55, 0.65, 0.4937406999524683, 0, 6.000000,7.000000,1.000000,6.000000,0.500000,1.000000
Dafq7m1z,200,1, test, 1, 7, 24, 3, 1, 1, 3, 0.55, 0.35, right, 2, 0.35, 0.45, 0.55, 0.65, 0.2779423000756651, 1, 7.000000,8.000000,1.000000,6.000000,0.500000,1.000000
Dafq7m1z,200,1, test, 1, 7, 25, 1, 4, 1, 4, 0.35, 0.65, left, 1, 0.35, 0.45, 0.55, 0.65, 0.7027308999095112, 0, 7.000000,8.000000,1.000000,6.000000,0.500000,1.000000
Dafq7m1z,200,1, test, 2, 1, 1, 2, 3, 2, 3, 0.45, 0.55, left, 1, 0.35, 0.45, 0.55, 0.65, 0.8277811000589281, 0, 0.000000,8.000000,1.000000,6.000000,0.500000,1.000000
Dafq7m1z,200,1, test, 2, 1, 2, 2, 3, 2, 3, 0.45, 0.55, left, 1, 0.35, 0.45, 0.55, 0.65, 0.5794014998245984, 0, 0.000000,8.000000,1.000000,6.000000,0.500000,1.000000
Dafq7m1z,200,1, test, 2, 1, 3, 3, 4, 3, 4, 0.55, 0.65, left, 1, 0.35, 0.45, 0.55, 0.65, 0.7659267999697477, 0, 0.000000,8.000000,1.000000,6.000000,0.500000,1.000000
Dafq7m1z,200,1, test, 2, 1, 4, 4, 3, 4, 3, 0.65, 0.55, left, 1, 0.35, 0.45, 0.55, 0.65, 0.8800392001867294, 1, 1.000000,9.000000,1.000000,6.000000,0.500000,1.000000
Dafq7m1z,200,1, test, 2, 1, 5, 3, 4, 3, 4, 0.55, 0.65, left, 1, 0.35, 0.45, 0.55, 0.65, 0.5956934001296759, 0, 1.000000,9.000000,1.000000,6.000000,0.500000,1.000000
Dafq7m1z,200,1, test, 2, 1, 6, 4, 3, 4, 3, 0.65, 0.55, left, 1, 0.35, 0.45, 0.55, 0.65, 2.8451107998844236, 1, 2.000000,10.000000,1.000000,6.000000,0.500000,1.000000
Dafq7m1z,200,1, test, 2, 1, 7, 3, 4, 3, 4, 0.55, 0.65, left, 1, 0.35, 0.45, 0.55, 0.65, 1.9523873999714851, 1, 3.000000,11.000000,1.000000,6.000000,0.500000,1.000000
Dafq7m1z,200,1, test, 2, 1, 8, 4, 2, 4, 2, 0.65, 0.45, left, 1, 0.35, 0.45, 0.55, 0.65, 1.1390784000977874, 0, 3.000000,11.000000,1.000000,6.000000,0.500000,1.000000
Dafq7m1z,200,1, test, 2, 1, 9, 4, 1, 4, 1, 0.65, 0.35, left, 1, 0.35, 0.45, 0.55, 0.65, 0.5874695000238717, 1, 4.000000,12.000000,1.000000,6.000000,0.500000,1.000000
Dafq7m1z,200,1, test, 2, 1, 10, 3, 1, 3, 1, 0.55, 0.35, left, 1, 0.35, 0.45, 0.55, 0.65, 0.49668450001627207, 0, 4.000000,12.000000,1.000000,6.000000,0.500000,1.000000
Dafq7m1z,200,1, test, 2, 1, 11, 1, 4, 1, 4, 0.35, 0.65, left, 1, 0.35, 0.45, 0.55, 0.65, 1.2012754001189023, 1, 5.000000,13.000000,1.000000,6.000000,0.500000,1.000000
Dafq7m1z,200,1, test, 2, 1, 12, 1, 2, 2, 1, 0.35, 0.45, right, 2, 0.35, 0.45, 0.55, 0.65, 0.7579852000344545, 1, 6.000000,14.000000,1.000000,6.000000,0.500000,1.000000
Dafq7m1z,200,1, test, 2, 1, 13, 3, 1, 3, 1, 0.55, 0.35, left, 1, 0.35, 0.45, 0.55, 0.65, 0.5590414998587221, 0, 6.000000,14.000000,1.000000,6.000000,0.500000,1.000000
Dafq7m1z,200,1, test, 2, 1, 14, 2, 4, 4, 2, 0.45, 0.65, right, 2, 0.35, 0.45, 0.55, 0.65, 0.8255988999735564, 1, 7.000000,15.000000,1.000000,6.000000,0.500000,1.000000
Dafq7m1z,200,1, test, 2, 1, 15, 1, 4, 4, 1, 0.35, 0.65, right, 2, 0.35, 0.45, 0.55, 0.65, 1.1099841999821365, 0, 7.000000,15.000000,1.000000,6.000000,0.500000,1.000000
Dafq7m1z,200,1, test, 2, 1, 16, 1, 3, 1, 3, 0.35, 0.55, left, 1, 0.35, 0.45, 0.55, 0.65, 0.3677499000914395, 0, 7.000000,15.000000,1.000000,6.000000,0.500000,1.000000
Dafq7m1z,200,1, test, 2, 1, 17, 2, 4, 2, 4, 0.45, 0.65, left, 1, 0.35, 0.45, 0.55, 0.65, 0.29619859997183084, 0, 7.000000,15.000000,1.000000,6.000000,0.500000,1.000000
Dafq7m1z,200,1, test, 2, 1, 18, 4, 1, 4, 1, 0.65, 0.35, left, 1, 0.35, 0.45, 0.55, 0.65, 1.3134808000177145, 0, 7.000000,15.000000,1.000000,6.000000,0.500000,1.000000
Dafq7m1z,200,1, test, 2, 1, 19, 2, 3, 2, 3, 0.45, 0.55, left, 1, 0.35, 0.45, 0.55, 0.65, 0.6485601998865604, 1, 8.000000,16.000000,1.000000,6.000000,0.500000,1.000000
Dafq7m1z,200,1, test, 2, 1, 20, 4, 3, 3, 4, 0.65, 0.55, right, 2, 0.35, 0.45, 0.55, 0.65, 0.48730109981261194, 0, 8.000000,16.000000,1.000000,6.000000,0.500000,1.000000
Dafq7m1z,200,1, test, 2, 1, 21, 4, 3, 4, 3, 0.65, 0.55, left, 1, 0.35, 0.45, 0.55, 0.65, 0.473368400009349, 0, 8.000000,16.000000,1.000000,6.000000,0.500000,1.000000
Dafq7m1z,200,1, test, 2, 1, 22, 1, 3, 3, 1, 0.35, 0.55, right, 2, 0.35, 0.45, 0.55, 0.65, 1.0780553000513464, 1, 9.000000,17.000000,1.000000,6.000000,0.500000,1.000000
Dafq7m1z,200,1, test, 2, 1, 23, 3, 1, 3, 1, 0.55, 0.35, left, 1, 0.35, 0.45, 0.55, 0.65, 0.4292278999928385, 0, 9.000000,17.000000,1.000000,6.000000,0.500000,1.000000
Dafq7m1z,200,1, test, 2, 1, 24, 1, 3, 1, 3, 0.35, 0.55, left, 1, 0.35, 0.45, 0.55, 0.65, 0.9613447000738233, 0, 9.000000,17.000000,1.000000,6.000000,0.500000,1.000000
Dafq7m1z,200,1, test, 2, 1, 25, 3, 2, 3, 2, 0.55, 0.45, left, 1, 0.35, 0.45, 0.55, 0.65, 1.8918594000861049, 0, 9.000000,17.000000,1.000000,6.000000,0.500000,1.000000
Dafq7m1z,200,1, test, 3, 7, 1, 2, 4, 2, 4, 0.45, 0.65, left, 1, 0.35, 0.45, 0.55, 0.65, 0.6235423998441547, 1, 1.000000,18.000000,1.000000,6.000000,0.500000,1.000000
Dafq7m1z,200,1, test, 3, 7, 2, 3, 4, 4, 3, 0.55, 0.65, right, 2, 0.35, 0.45, 0.55, 0.65, 0.5441767999436706, 0, 1.000000,18.000000,1.000000,6.000000,0.500000,1.000000
Dafq7m1z,200,1, test, 3, 7, 3, 1, 3, 1, 3, 0.35, 0.55, left, 1, 0.35, 0.45, 0.55, 0.65, 0.8281193999573588, 0, 1.000000,18.000000,1.000000,6.000000,0.500000,1.000000
Dafq7m1z,200,1, test, 3, 7, 4, 2, 1, 2, 1, 0.45, 0.35, left, 1, 0.35, 0.45, 0.55, 0.65, 0.7719340000767261, 1, 2.000000,19.000000,1.000000,6.000000,0.500000,1.000000
Dafq7m1z,200,1, test, 3, 7, 5, 3, 1, 3, 1, 0.55, 0.35, left, 1, 0.35, 0.45, 0.55, 0.65, 2.783496899995953, 0, 2.000000,19.000000,1.000000,6.000000,0.500000,1.000000
Dafq7m1z,200,1, test, 3, 7, 6, 4, 2, 2, 4, 0.65, 0.45, right, 2, 0.35, 0.45, 0.55, 0.65, 0.8810511000920087, 1, 3.000000,20.000000,1.000000,6.000000,0.500000,1.000000
Dafq7m1z,200,1, test, 3, 7, 7, 2, 1, 1, 2, 0.45, 0.35, right, 2, 0.35, 0.45, 0.55, 0.65, 0.6447733000386506, 1, 4.000000,21.000000,1.000000,6.000000,0.500000,1.000000
Dafq7m1z,200,1, test, 3, 7, 8, 1, 2, 2, 1, 0.35, 0.45, right, 2, 0.35, 0.45, 0.55, 0.65, 0.9963183999061584, 0, 4.000000,21.000000,1.000000,6.000000,0.500000,1.000000
Dafq7m1z,200,1, test, 3, 7, 9, 1, 4, 1, 4, 0.35, 0.65, left, 1, 0.35, 0.45, 0.55, 0.65, 0.4091803999617696, 0, 4.000000,21.000000,1.000000,6.000000,0.500000,1.000000
Dafq7m1z,200,1, test, 3, 7, 10, 3, 4, 4, 3, 0.55, 0.65, right, 2, 0.35, 0.45, 0.55, 0.65, 0.5279720998369157, 1, 5.000000,22.000000,1.000000,6.000000,0.500000,1.000000
Dafq7m1z,200,1, test, 3, 7, 11, 3, 2, 3, 2, 0.55, 0.45, left, 1, 0.35, 0.45, 0.55, 0.65, 1.903614099835977, 0, 5.000000,22.000000,1.000000,6.000000,0.500000,1.000000
Dafq7m1z,200,1, test, 3, 7, 12, 4, 1, 1, 4, 0.65, 0.35, right, 2, 0.35, 0.45, 0.55, 0.65, 0.7873381997924298, 1, 6.000000,23.000000,1.000000,6.000000,0.500000,1.000000
Dafq7m1z,200,1, test, 3, 7, 13, 3, 4, 4, 3, 0.55, 0.65, right, 2, 0.35, 0.45, 0.55, 0.65, 0.9480002000927925, 1, 7.000000,24.000000,1.000000,6.000000,0.500000,1.000000
Dafq7m1z,200,1, test, 3, 7, 14, 4, 3, 4, 3, 0.65, 0.55, left, 1, 0.35, 0.45, 0.55, 0.65, 1.2710810999851674, 1, 8.000000,25.000000,1.000000,6.000000,0.500000,1.000000
Dafq7m1z,200,1, test, 3, 7, 15, 1, 3, 3, 1, 0.35, 0.55, right, 2, 0.35, 0.45, 0.55, 0.65, 0.8480527000501752, 0, 8.000000,25.000000,1.000000,6.000000,0.500000,1.000000
Dafq7m1z,200,1, test, 3, 7, 16, 2, 3, 3, 2, 0.45, 0.55, right, 2, 0.35, 0.45, 0.55, 0.65, 0.5890353999566287, 0, 8.000000,25.000000,1.000000,6.000000,0.500000,1.000000
Dafq7m1z,200,1, test, 3, 7, 17, 3, 1, 1, 3, 0.55, 0.35, right, 2, 0.35, 0.45, 0.55, 0.65, 1.1221366999670863, 0, 8.000000,25.000000,1.000000,6.000000,0.500000,1.000000
Dafq7m1z,200,1, test, 3, 7, 18, 3, 1, 1, 3, 0.55, 0.35, right, 2, 0.35, 0.45, 0.55, 0.65, 1.7935038001742214, 0, 8.000000,25.000000,1.000000,6.000000,0.500000,1.000000
Dafq7m1z,200,1, test, 3, 7, 19, 1, 2, 1, 2, 0.35, 0.45, left, 1, 0.35, 0.45, 0.55, 0.65, 0.8576630000025034, 0, 8.000000,25.000000,1.000000,6.000000,0.500000,1.000000
Dafq7m1z,200,1, test, 3, 7, 20, 4, 3, 4, 3, 0.65, 0.55, left, 1, 0.35, 0.45, 0.55, 0.65, 2.6930124999489635, 0, 8.000000,25.000000,1.000000,6.000000,0.500000,1.000000
Dafq7m1z,200,1, test, 3, 7, 21, 3, 2, 3, 2, 0.55, 0.45, left, 1, 0.35, 0.45, 0.55, 0.65, 2.876541299978271, 0, 8.000000,25.000000,1.000000,6.000000,0.500000,1.000000
Dafq7m1z,200,1, test, 3, 7, 22, 2, 4, 4, 2, 0.45, 0.65, right, 2, 0.35, 0.45, 0.55, 0.65, 0.5457868999801576, 1, 9.000000,26.000000,1.000000,6.000000,0.500000,1.000000
Dafq7m1z,200,1, test, 3, 7, 23, 4, 3, 3, 4, 0.65, 0.55, right, 2, 0.35, 0.45, 0.55, 0.65, 1.6075309000443667, 1, 10.000000,27.000000,1.000000,6.000000,0.500000,1.000000
Dafq7m1z,200,1, test, 3, 7, 24, 4, 3, 4, 3, 0.65, 0.55, left, 1, 0.35, 0.45, 0.55, 0.65, 2.3994954999070615, 1, 11.000000,28.000000,1.000000,6.000000,0.500000,1.000000
Dafq7m1z,200,1, test, 3, 7, 25, 3, 2, 2, 3, 0.55, 0.45, right, 2, 0.35, 0.45, 0.55, 0.65, 0.43937579984776676, 1, 12.000000,29.000000,1.000000,6.000000,0.500000,1.000000
Dafq7m1z,200,1, test, 4, 1, 1, 4, 2, 4, 2, 0.65, 0.45, left, 1, 0.35, 0.45, 0.55, 0.65, 0.6129565997980535, 1, 1.000000,30.000000,1.000000,6.000000,0.500000,1.000000
Dafq7m1z,200,1, test, 4, 1, 2, 3, 1, 1, 3, 0.55, 0.35, right, 2, 0.35, 0.45, 0.55, 0.65, 0.6443153999280185, 1, 2.000000,31.000000,1.000000,6.000000,0.500000,1.000000
Dafq7m1z,200,1, test, 4, 1, 3, 4, 3, 4, 3, 0.65, 0.55, left, 1, 0.35, 0.45, 0.55, 0.65, 0.5188418999314308, 1, 3.000000,32.000000,1.000000,6.000000,0.500000,1.000000
Dafq7m1z,200,1, test, 4, 1, 4, 4, 2, 4, 2, 0.65, 0.45, left, 1, 0.35, 0.45, 0.55, 0.65, 0.7293845000676811, 0, 3.000000,32.000000,1.000000,6.000000,0.500000,1.000000
Dafq7m1z,200,1, test, 4, 1, 5, 2, 3, 2, 3, 0.45, 0.55, left, 1, 0.35, 0.45, 0.55, 0.65, 1.0242534999269992, 0, 3.000000,32.000000,1.000000,6.000000,0.500000,1.000000
Dafq7m1z,200,1, test, 4, 1, 6, 3, 1, 1, 3, 0.55, 0.35, right, 2, 0.35, 0.45, 0.55, 0.65, 0.5373332998715341, 1, 4.000000,33.000000,1.000000,6.000000,0.500000,1.000000
Dafq7m1z,200,1, test, 4, 1, 7, 2, 1, 1, 2, 0.45, 0.35, right, 2, 0.35, 0.45, 0.55, 0.65, 0.33951630000956357, 1, 5.000000,34.000000,1.000000,6.000000,0.500000,1.000000
Dafq7m1z,200,1, test, 4, 1, 8, 3, 1, 1, 3, 0.55, 0.35, right, 2, 0.35, 0.45, 0.55, 0.65, 0.4016140999738127, 1, 6.000000,35.000000,1.000000,6.000000,0.500000,1.000000
Dafq7m1z,200,1, test, 4, 1, 9, 2, 4, 4, 2, 0.45, 0.65, right, 2, 0.35, 0.45, 0.55, 0.65, 0.2866494001355022, 0, 6.000000,35.000000,1.000000,6.000000,0.500000,1.000000
Dafq7m1z,200,1, test, 4, 1, 10, 4, 1, 4, 1, 0.65, 0.35, left, 1, 0.35, 0.45, 0.55, 0.65, 0.8416880001313984, 0, 6.000000,35.000000,1.000000,6.000000,0.500000,1.000000
Dafq7m1z,200,1, test, 4, 1, 11, 2, 3, 2, 3, 0.45, 0.55, left, 1, 0.35, 0.45, 0.55, 0.65, 0.6173948000650853, 1, 7.000000,36.000000,1.000000,6.000000,0.500000,1.000000
Dafq7m1z,200,1, test, 4, 1, 12, 2, 4, 4, 2, 0.45, 0.65, right, 2, 0.35, 0.45, 0.55, 0.65, 0.38147229980677366, 0, 7.000000,36.000000,1.000000,6.000000,0.500000,1.000000
Dafq7m1z,200,1, test, 4, 1, 13, 1, 4, 4, 1, 0.35, 0.65, right, 2, 0.35, 0.45, 0.55, 0.65, 1.222172100096941, 1, 8.000000,37.000000,1.000000,6.000000,0.500000,1.000000
Dafq7m1z,200,1, test, 4, 1, 14, 1, 4, 4, 1, 0.35, 0.65, right, 2, 0.35, 0.45, 0.55, 0.65, 0.2952695998828858, 1, 9.000000,38.000000,1.000000,6.000000,0.500000,1.000000
Dafq7m1z,200,1, test, 4, 1, 15, 1, 3, 1, 3, 0.35, 0.55, left, 1, 0.35, 0.45, 0.55, 0.65, 0.3909358000382781, 1, 10.000000,39.000000,1.000000,6.000000,0.500000,1.000000
Dafq7m1z,200,1, test, 4, 1, 16, 2, 3, 2, 3, 0.45, 0.55, left, 1, 0.35, 0.45, 0.55, 0.65, 0.43148800008930266, 1, 11.000000,40.000000,1.000000,6.000000,0.500000,1.000000
Dafq7m1z,200,1, test, 4, 1, 17, 2, 1, 2, 1, 0.45, 0.35, left, 1, 0.35, 0.45, 0.55, 0.65, 0.2891887999139726, 0, 11.000000,40.000000,1.000000,6.000000,0.500000,1.000000
Dafq7m1z,200,1, test, 4, 1, 18, 2, 4, 4, 2, 0.45, 0.65, right, 2, 0.35, 0.45, 0.55, 0.65, 1.2524278999771923, 0, 11.000000,40.000000,1.000000,6.000000,0.500000,1.000000
Dafq7m1z,200,1, test, 4, 1, 19, 3, 2, 3, 2, 0.55, 0.45, left, 1, 0.35, 0.45, 0.55, 0.65, 0.5817384000401944, 0, 11.000000,40.000000,1.000000,6.000000,0.500000,1.000000
Dafq7m1z,200,1, test, 4, 1, 20, 3, 2, 2, 3, 0.55, 0.45, right, 2, 0.35, 0.45, 0.55, 0.65, 0.26350670005194843, 1, 12.000000,41.000000,1.000000,6.000000,0.500000,1.000000
Dafq7m1z,200,1, test, 4, 1, 21, 2, 1, 1, 2, 0.45, 0.35, right, 2, 0.35, 0.45, 0.55, 0.65, 0.2523181999567896, 0, 12.000000,41.000000,1.000000,6.000000,0.500000,1.000000
Dafq7m1z,200,1, test, 4, 1, 22, 2, 4, 2, 4, 0.45, 0.65, left, 1, 0.35, 0.45, 0.55, 0.65, 0.5996702001430094, 0, 12.000000,41.000000,1.000000,6.000000,0.500000,1.000000
Dafq7m1z,200,1, test, 4, 1, 23, 4, 1, 4, 1, 0.65, 0.35, left, 1, 0.35, 0.45, 0.55, 0.65, 1.3911925998982042, 1, 13.000000,42.000000,1.000000,6.000000,0.500000,1.000000
Dafq7m1z,200,1, test, 4, 1, 24, 4, 3, 3, 4, 0.65, 0.55, right, 2, 0.35, 0.45, 0.55, 0.65, 0.024907799903303385, 1, 14.000000,43.000000,1.000000,6.000000,0.500000,1.000000
Dafq7m1z,200,1, test, 4, 1, 25, 4, 1, 4, 1, 0.65, 0.35, left, 1, 0.35, 0.45, 0.55, 0.65, 0.24702430004253983, 0, 14.000000,43.000000,1.000000,6.000000,0.500000,1.000000
Dafq7m1z,200,1, test, 5, 7, 1, 3, 4, 4, 3, 0.55, 0.65, right, 2, 0.35, 0.45, 0.55, 0.65, 0.3282801997847855, 1, 1.000000,44.000000,1.000000,6.000000,0.500000,1.000000
Dafq7m1z,200,1, test, 5, 7, 2, 3, 2, 3, 2, 0.55, 0.45, left, 1, 0.35, 0.45, 0.55, 0.65, 0.24814960011281073, 0, 1.000000,44.000000,1.000000,6.000000,0.500000,1.000000
Dafq7m1z,200,1, test, 5, 7, 3, 1, 4, 4, 1, 0.35, 0.65, right, 2, 0.35, 0.45, 0.55, 0.65, 0.4097556001506746, 1, 2.000000,45.000000,1.000000,6.000000,0.500000,1.000000
Dafq7m1z,200,1, test, 5, 7, 4, 4, 1, 1, 4, 0.65, 0.35, right, 2, 0.35, 0.45, 0.55, 0.65, 0.41399519983679056, 1, 3.000000,46.000000,1.000000,6.000000,0.500000,1.000000
Dafq7m1z,200,1, test, 5, 7, 5, 1, 2, 1, 2, 0.35, 0.45, left, 1, 0.35, 0.45, 0.55, 0.65, 1.0541169999632984, 1, 4.000000,47.000000,1.000000,6.000000,0.500000,1.000000
Dafq7m1z,200,1, test, 5, 7, 6, 1, 3, 3, 1, 0.35, 0.55, right, 2, 0.35, 0.45, 0.55, 0.65, 0.0034678999800235033, 1, 5.000000,48.000000,1.000000,6.000000,0.500000,1.000000
Dafq7m1z,200,1, test, 5, 7, 7, 1, 2, 1, 2, 0.35, 0.45, left, 1, 0.35, 0.45, 0.55, 0.65, 0.6371684998739511, 0, 5.000000,48.000000,1.000000,6.000000,0.500000,1.000000
Dafq7m1z,200,1, test, 5, 7, 8, 2, 3, 3, 2, 0.45, 0.55, right, 2, 0.35, 0.45, 0.55, 0.65, 0.9595000001136214, 0, 5.000000,48.000000,1.000000,6.000000,0.500000,1.000000
Dafq7m1z,200,1, test, 5, 7, 9, 2, 1, 1, 2, 0.45, 0.35, right, 2, 0.35, 0.45, 0.55, 0.65, 0.43408929998986423, 1, 6.000000,49.000000,1.000000,6.000000,0.500000,1.000000
Dafq7m1z,200,1, test, 5, 7, 10, 1, 3, 1, 3, 0.35, 0.55, left, 1, 0.35, 0.45, 0.55, 0.65, 0.3221277000848204, 0, 6.000000,49.000000,1.000000,6.000000,0.500000,1.000000
Dafq7m1z,200,1, test, 5, 7, 11, 3, 1, 3, 1, 0.55, 0.35, left, 1, 0.35, 0.45, 0.55, 0.65, 0.4215400000102818, 0, 6.000000,49.000000,1.000000,6.000000,0.500000,1.000000
Dafq7m1z,200,1, test, 5, 7, 12, 4, 1, 1, 4, 0.65, 0.35, right, 2, 0.35, 0.45, 0.55, 0.65, 1.5612514000386, 1, 7.000000,50.000000,1.000000,6.000000,0.500000,1.000000
Dafq7m1z,200,1, test, 5, 7, 13, 4, 3, 3, 4, 0.65, 0.55, right, 2, 0.35, 0.45, 0.55, 0.65, 1.2469274001196027, 0, 7.000000,50.000000,1.000000,6.000000,0.500000,1.000000
Dafq7m1z,200,1, test, 5, 7, 14, 2, 3, 3, 2, 0.45, 0.55, right, 2, 0.35, 0.45, 0.55, 0.65, 1.213664600159973, 0, 7.000000,50.000000,1.000000,6.000000,0.500000,1.000000
Dafq7m1z,200,1, test, 5, 7, 15, 4, 1, 1, 4, 0.65, 0.35, right, 2, 0.35, 0.45, 0.55, 0.65, 0.3780545999761671, 1, 8.000000,51.000000,1.000000,6.000000,0.500000,1.000000
Dafq7m1z,200,1, test, 5, 7, 16, 2, 4, 2, 4, 0.45, 0.65, left, 1, 0.35, 0.45, 0.55, 0.65, 0.6929219998419285, 0, 8.000000,51.000000,1.000000,6.000000,0.500000,1.000000
Dafq7m1z,200,1, test, 5, 7, 17, 3, 2, 2, 3, 0.55, 0.45, right, 2, 0.35, 0.45, 0.55, 0.65, 0.33713650004938245, 0, 8.000000,51.000000,1.000000,6.000000,0.500000,1.000000
Dafq7m1z,200,1, test, 5, 7, 18, 2, 4, 4, 2, 0.45, 0.65, right, 2, 0.35, 0.45, 0.55, 0.65, 0.6412712999153882, 1, 9.000000,52.000000,1.000000,6.000000,0.500000,1.000000
Dafq7m1z,200,1, test, 5, 7, 19, 1, 4, 4, 1, 0.35, 0.65, right, 2, 0.35, 0.45, 0.55, 0.65, 0.7315313001163304, 0, 9.000000,52.000000,1.000000,6.000000,0.500000,1.000000
Dafq7m1z,200,1, test, 5, 7, 20, 1, 3, 1, 3, 0.35, 0.55, left, 1, 0.35, 0.45, 0.55, 0.65, 1.5189497999381274, 0, 9.000000,52.000000,1.000000,6.000000,0.500000,1.000000
Dafq7m1z,200,1, test, 5, 7, 21, 3, 4, 3, 4, 0.55, 0.65, left, 1, 0.35, 0.45, 0.55, 0.65, 2.1388129000552, 0, 9.000000,52.000000,1.000000,6.000000,0.500000,1.000000
Dafq7m1z,200,1, test, 5, 7, 22, 3, 4, 4, 3, 0.55, 0.65, right, 2, 0.35, 0.45, 0.55, 0.65, 0.5300641998182982, 1, 10.000000,53.000000,1.000000,6.000000,0.500000,1.000000
Dafq7m1z,200,1, test, 5, 7, 23, 3, 1, 1, 3, 0.55, 0.35, right, 2, 0.35, 0.45, 0.55, 0.65, 0.7734445999376476, 0, 10.000000,53.000000,1.000000,6.000000,0.500000,1.000000
Dafq7m1z,200,1, test, 5, 7, 24, 4, 2, 2, 4, 0.65, 0.45, right, 2, 0.35, 0.45, 0.55, 0.65, 0.5675750998780131, 0, 10.000000,53.000000,1.000000,6.000000,0.500000,1.000000
Dafq7m1z,200,1, test, 5, 7, 25, 3, 2, 2, 3, 0.55, 0.45, right, 2, 0.35, 0.45, 0.55, 0.65, 0.4692879000212997, 0, 10.000000,53.000000,1.000000,6.000000,0.500000,1.000000
Dafq7m1z,200,1, test, 6, 1, 1, 2, 4, 2, 4, 0.45, 0.65, left, 1, 0.35, 0.45, 0.55, 0.65, 0.918218299979344, 1, 1.000000,54.000000,1.000000,6.000000,0.500000,1.000000
Dafq7m1z,200,1, test, 6, 1, 2, 3, 4, 4, 3, 0.55, 0.65, right, 2, 0.35, 0.45, 0.55, 0.65, 0.41369340009987354, 0, 1.000000,54.000000,1.000000,6.000000,0.500000,1.000000
Dafq7m1z,200,1, test, 6, 1, 3, 2, 3, 3, 2, 0.45, 0.55, right, 2, 0.35, 0.45, 0.55, 0.65, 0.18170089996419847, 1, 2.000000,55.000000,1.000000,6.000000,0.500000,1.000000
Dafq7m1z,200,1, test, 6, 1, 4, 4, 1, 4, 1, 0.65, 0.35, left, 1, 0.35, 0.45, 0.55, 0.65, 0.5779315999243408, 0, 2.000000,55.000000,1.000000,6.000000,0.500000,1.000000
Dafq7m1z,200,1, test, 6, 1, 5, 1, 2, 2, 1, 0.35, 0.45, right, 2, 0.35, 0.45, 0.55, 0.65, 0.9681018001865596, 0, 2.000000,55.000000,1.000000,6.000000,0.500000,1.000000
Dafq7m1z,200,1, test, 6, 1, 6, 1, 3, 3, 1, 0.35, 0.55, right, 2, 0.35, 0.45, 0.55, 0.65, 0.30207670014351606, 0, 2.000000,55.000000,1.000000,6.000000,0.500000,1.000000
Dafq7m1z,200,1, test, 6, 1, 7, 4, 1, 1, 4, 0.65, 0.35, right, 2, 0.35, 0.45, 0.55, 0.65, 0.42360539990477264, 0, 2.000000,55.000000,1.000000,6.000000,0.500000,1.000000
Dafq7m1z,200,1, test, 6, 1, 8, 3, 1, 3, 1, 0.55, 0.35, left, 1, 0.35, 0.45, 0.55, 0.65, 0.3081116999965161, 0, 2.000000,55.000000,1.000000,6.000000,0.500000,1.000000
Dafq7m1z,200,1, test, 6, 1, 9, 3, 2, 2, 3, 0.55, 0.45, right, 2, 0.35, 0.45, 0.55, 0.65, 0.4281144000124186, 0, 2.000000,55.000000,1.000000,6.000000,0.500000,1.000000
Dafq7m1z,200,1, test, 6, 1, 10, 3, 2, 2, 3, 0.55, 0.45, right, 2, 0.35, 0.45, 0.55, 0.65, 0.5074329001363367, 1, 3.000000,56.000000,1.000000,6.000000,0.500000,1.000000
Dafq7m1z,200,1, test, 6, 1, 11, 4, 1, 1, 4, 0.65, 0.35, right, 2, 0.35, 0.45, 0.55, 0.65, 0.7640295999590307, 0, 3.000000,56.000000,1.000000,6.000000,0.500000,1.000000
Dafq7m1z,200,1, test, 6, 1, 12, 1, 2, 2, 1, 0.35, 0.45, right, 2, 0.35, 0.45, 0.55, 0.65, 0.5935573000460863, 0, 3.000000,56.000000,1.000000,6.000000,0.500000,1.000000
Dafq7m1z,200,1, test, 6, 1, 13, 3, 1, 1, 3, 0.55, 0.35, right, 2, 0.35, 0.45, 0.55, 0.65, 0.34430420002900064, 1, 4.000000,57.000000,1.000000,6.000000,0.500000,1.000000
Dafq7m1z,200,1, test, 6, 1, 14, 3, 1, 1, 3, 0.55, 0.35, right, 2, 0.35, 0.45, 0.55, 0.65, 0.5358656998723745, 1, 5.000000,58.000000,1.000000,6.000000,0.500000,1.000000
Dafq7m1z,200,1, test, 6, 1, 15, 3, 4, 4, 3, 0.55, 0.65, right, 2, 0.35, 0.45, 0.55, 0.65, 0.27568299998529255, 0, 5.000000,58.000000,1.000000,6.000000,0.500000,1.000000
Dafq7m1z,200,1, test, 6, 1, 16, 3, 1, 3, 1, 0.55, 0.35, left, 1, 0.35, 0.45, 0.55, 0.65, 0.7456356000620872, 1, 6.000000,59.000000,1.000000,6.000000,0.500000,1.000000
Dafq7m1z,200,1, test, 6, 1, 17, 3, 4, 3, 4, 0.55, 0.65, left, 1, 0.35, 0.45, 0.55, 0.65, 0.4360243999399245, 1, 7.000000,60.000000,1.000000,6.000000,0.500000,1.000000
Dafq7m1z,200,1, test, 6, 1, 18, 1, 2, 1, 2, 0.35, 0.45, left, 1, 0.35, 0.45, 0.55, 0.65, 1.6913250000216067, 0, 7.000000,60.000000,1.000000,6.000000,0.500000,1.000000
Dafq7m1z,200,1, test, 6, 1, 19, 2, 1, 1, 2, 0.45, 0.35, right, 2, 0.35, 0.45, 0.55, 0.65, 0.8783245999366045, 1, 8.000000,61.000000,1.000000,6.000000,0.500000,1.000000
Dafq7m1z,200,1, test, 6, 1, 20, 3, 4, 3, 4, 0.55, 0.65, left, 1, 0.35, 0.45, 0.55, 0.65, 1.743775799870491, 0, 8.000000,61.000000,1.000000,6.000000,0.500000,1.000000
Dafq7m1z,200,1, test, 6, 1, 21, 4, 2, 2, 4, 0.65, 0.45, right, 2, 0.35, 0.45, 0.55, 0.65, 0.35565510019659996, 0, 8.000000,61.000000,1.000000,6.000000,0.500000,1.000000
Dafq7m1z,200,1, test, 6, 1, 22, 2, 1, 2, 1, 0.45, 0.35, left, 1, 0.35, 0.45, 0.55, 0.65, 0.29774140007793903, 0, 8.000000,61.000000,1.000000,6.000000,0.500000,1.000000
Dafq7m1z,200,1, test, 6, 1, 23, 2, 1, 1, 2, 0.45, 0.35, right, 2, 0.35, 0.45, 0.55, 0.65, 0.27823769999668, 0, 8.000000,61.000000,1.000000,6.000000,0.500000,1.000000
Dafq7m1z,200,1, test, 6, 1, 24, 1, 2, 2, 1, 0.35, 0.45, right, 2, 0.35, 0.45, 0.55, 0.65, 0.5923073999583721, 1, 9.000000,62.000000,1.000000,6.000000,0.500000,1.000000
Dafq7m1z,200,1, test, 6, 1, 25, 4, 3, 3, 4, 0.65, 0.55, right, 2, 0.35, 0.45, 0.55, 0.65, 0.49236919987015426, 0, 9.000000,62.000000,1.000000,6.000000,0.500000,1.000000
Dafq7m1z,200,1, test, 7, 7, 1, 3, 4, 3, 4, 0.55, 0.65, left, 1, 0.35, 0.45, 0.55, 0.65, 0.6081069998908788, 1, 1.000000,63.000000,1.000000,6.000000,0.500000,1.000000
Dafq7m1z,200,1, test, 7, 7, 2, 2, 1, 1, 2, 0.45, 0.35, right, 2, 0.35, 0.45, 0.55, 0.65, 0.4567701001651585, 0, 1.000000,63.000000,1.000000,6.000000,0.500000,1.000000
Dafq7m1z,200,1, test, 7, 7, 3, 1, 2, 1, 2, 0.35, 0.45, left, 1, 0.35, 0.45, 0.55, 0.65, 0.6516283000819385, 1, 2.000000,64.000000,1.000000,6.000000,0.500000,1.000000
Dafq7m1z,200,1, test, 7, 7, 4, 3, 2, 2, 3, 0.55, 0.45, right, 2, 0.35, 0.45, 0.55, 0.65, 0.5935037999879569, 1, 3.000000,65.000000,1.000000,6.000000,0.500000,1.000000
Dafq7m1z,200,1, test, 7, 7, 5, 4, 2, 2, 4, 0.65, 0.45, right, 2, 0.35, 0.45, 0.55, 0.65, 0.3355006999336183, 1, 4.000000,66.000000,1.000000,6.000000,0.500000,1.000000
Dafq7m1z,200,1, test, 7, 7, 6, 2, 1, 1, 2, 0.45, 0.35, right, 2, 0.35, 0.45, 0.55, 0.65, 0.7420038999989629, 0, 4.000000,66.000000,1.000000,6.000000,0.500000,1.000000
Dafq7m1z,200,1, test, 7, 7, 7, 3, 2, 3, 2, 0.55, 0.45, left, 1, 0.35, 0.45, 0.55, 0.65, 0.48555040010251105, 0, 4.000000,66.000000,1.000000,6.000000,0.500000,1.000000
Dafq7m1z,200,1, test, 7, 7, 8, 3, 1, 3, 1, 0.55, 0.35, left, 1, 0.35, 0.45, 0.55, 0.65, 0.5539097001310438, 1, 5.000000,67.000000,1.000000,6.000000,0.500000,1.000000
Dafq7m1z,200,1, test, 7, 7, 9, 4, 1, 1, 4, 0.65, 0.35, right, 2, 0.35, 0.45, 0.55, 0.65, 0.3496181999798864, 0, 5.000000,67.000000,1.000000,6.000000,0.500000,1.000000
Dafq7m1z,200,1, test, 7, 7, 10, 2, 3, 2, 3, 0.45, 0.55, left, 1, 0.35, 0.45, 0.55, 0.65, 0.40437080012634397, 0, 5.000000,67.000000,1.000000,6.000000,0.500000,1.000000
Dafq7m1z,200,1, test, 7, 7, 11, 1, 3, 3, 1, 0.35, 0.55, right, 2, 0.35, 0.45, 0.55, 0.65, 0.3314881999976933, 0, 5.000000,67.000000,1.000000,6.000000,0.500000,1.000000
Dafq7m1z,200,1, test, 7, 7, 12, 4, 2, 4, 2, 0.65, 0.45, left, 1, 0.35, 0.45, 0.55, 0.65, 1.3442780000623316, 1, 6.000000,68.000000,1.000000,6.000000,0.500000,1.000000
Dafq7m1z,200,1, test, 7, 7, 13, 1, 2, 2, 1, 0.35, 0.45, right, 2, 0.35, 0.45, 0.55, 0.65, 0.6073748997878283, 0, 6.000000,68.000000,1.000000,6.000000,0.500000,1.000000
Dafq7m1z,200,1, test, 7, 7, 14, 4, 1, 1, 4, 0.65, 0.35, right, 2, 0.35, 0.45, 0.55, 0.65, 0.11208060011267662, 1, 7.000000,69.000000,1.000000,6.000000,0.500000,1.000000
Dafq7m1z,200,1, test, 7, 7, 15, 4, 3, 4, 3, 0.65, 0.55, left, 1, 0.35, 0.45, 0.55, 0.65, 0.6800210000947118, 0, 7.000000,69.000000,1.000000,6.000000,0.500000,1.000000
Dafq7m1z,200,1, test, 7, 7, 16, 2, 4, 4, 2, 0.45, 0.65, right, 2, 0.35, 0.45, 0.55, 0.65, 0.3940039000008255, 0, 7.000000,69.000000,1.000000,6.000000,0.500000,1.000000
Dafq7m1z,200,1, test, 7, 7, 17, 2, 4, 4, 2, 0.45, 0.65, right, 2, 0.35, 0.45, 0.55, 0.65, 0.42563169985078275, 0, 7.000000,69.000000,1.000000,6.000000,0.500000,1.000000
Dafq7m1z,200,1, test, 7, 7, 18, 4, 1, 1, 4, 0.65, 0.35, right, 2, 0.35, 0.45, 0.55, 0.65, 0.03385309991426766, 1, 8.000000,70.000000,1.000000,6.000000,0.500000,1.000000
Dafq7m1z,200,1, test, 7, 7, 19, 1, 2, 2, 1, 0.35, 0.45, right, 2, 0.35, 0.45, 0.55, 0.65, 0.2699354998767376, 0, 8.000000,70.000000,1.000000,6.000000,0.500000,1.000000
Dafq7m1z,200,1, test, 7, 7, 20, 1, 3, 3, 1, 0.35, 0.55, right, 2, 0.35, 0.45, 0.55, 0.65, 0.5761565000284463, 0, 8.000000,70.000000,1.000000,6.000000,0.500000,1.000000
Dafq7m1z,200,1, test, 7, 7, 21, 3, 4, 3, 4, 0.55, 0.65, left, 1, 0.35, 0.45, 0.55, 0.65, 0.6221527000889182, 0, 8.000000,70.000000,1.000000,6.000000,0.500000,1.000000
Dafq7m1z,200,1, test, 7, 7, 22, 2, 1, 1, 2, 0.45, 0.35, right, 2, 0.35, 0.45, 0.55, 0.65, 0.33399530011229217, 0, 8.000000,70.000000,1.000000,6.000000,0.500000,1.000000
Dafq7m1z,200,1, test, 7, 7, 23, 3, 1, 1, 3, 0.55, 0.35, right, 2, 0.35, 0.45, 0.55, 0.65, 4.1959800000768155, 1, 9.000000,71.000000,1.000000,6.000000,0.500000,1.000000
Dafq7m1z,200,1, test, 7, 7, 24, 3, 4, 3, 4, 0.55, 0.65, left, 1, 0.35, 0.45, 0.55, 0.65, 0.8642177998553962, 1, 10.000000,72.000000,1.000000,6.000000,0.500000,1.000000
Dafq7m1z,200,1, test, 7, 7, 25, 4, 1, 1, 4, 0.65, 0.35, right, 2, 0.35, 0.45, 0.55, 0.65, 0.734300300013274, 1, 11.000000,73.000000,1.000000,6.000000,0.500000,1.000000
Dafq7m1z,200,1, test, 8, 1, 1, 1, 3, 1, 3, 0.35, 0.55, left, 1, 0.35, 0.45, 0.55, 0.65, 0.695568400202319, 0, 0.000000,73.000000,1.000000,6.000000,0.500000,1.000000
Dafq7m1z,200,1, test, 8, 1, 2, 4, 1, 1, 4, 0.65, 0.35, right, 2, 0.35, 0.45, 0.55, 0.65, 0.5727818000596017, 1, 1.000000,74.000000,1.000000,6.000000,0.500000,1.000000
Dafq7m1z,200,1, test, 8, 1, 3, 1, 2, 2, 1, 0.35, 0.45, right, 2, 0.35, 0.45, 0.55, 0.65, 1.8238812999334186, 0, 1.000000,74.000000,1.000000,6.000000,0.500000,1.000000
Dafq7m1z,200,1, test, 8, 1, 4, 4, 3, 3, 4, 0.65, 0.55, right, 2, 0.35, 0.45, 0.55, 0.65, 1.9398888999130577, 1, 2.000000,75.000000,1.000000,6.000000,0.500000,1.000000
Dafq7m1z,200,1, test, 8, 1, 5, 4, 1, 4, 1, 0.65, 0.35, left, 1, 0.35, 0.45, 0.55, 0.65, 0.9732118998654187, 0, 2.000000,75.000000,1.000000,6.000000,0.500000,1.000000
Dafq7m1z,200,1, test, 8, 1, 6, 1, 2, 1, 2, 0.35, 0.45, left, 1, 0.35, 0.45, 0.55, 0.65, 0.9068402000702918, 1, 3.000000,76.000000,1.000000,6.000000,0.500000,1.000000
Dafq7m1z,200,1, test, 8, 1, 7, 2, 1, 2, 1, 0.45, 0.35, left, 1, 0.35, 0.45, 0.55, 0.65, 0.5476439998019487, 1, 4.000000,77.000000,1.000000,6.000000,0.500000,1.000000
Dafq7m1z,200,1, test, 8, 1, 8, 3, 4, 3, 4, 0.55, 0.65, left, 1, 0.35, 0.45, 0.55, 0.65, 1.5544982999563217, 1, 5.000000,78.000000,1.000000,6.000000,0.500000,1.000000
Dafq7m1z,200,1, test, 8, 1, 9, 1, 3, 1, 3, 0.35, 0.55, left, 1, 0.35, 0.45, 0.55, 0.65, 0.3811269998550415, 0, 5.000000,78.000000,1.000000,6.000000,0.500000,1.000000
Dafq7m1z,200,1, test, 8, 1, 10, 3, 2, 3, 2, 0.55, 0.45, left, 1, 0.35, 0.45, 0.55, 0.65, 1.602598800091073, 1, 6.000000,79.000000,1.000000,6.000000,0.500000,1.000000
Dafq7m1z,200,1, test, 8, 1, 11, 4, 1, 4, 1, 0.65, 0.35, left, 1, 0.35, 0.45, 0.55, 0.65, 1.6381431999616325, 0, 6.000000,79.000000,1.000000,6.000000,0.500000,1.000000
Dafq7m1z,200,1, test, 8, 1, 12, 1, 4, 4, 1, 0.35, 0.65, right, 2, 0.35, 0.45, 0.55, 0.65, 0.42625739984214306, 0, 6.000000,79.000000,1.000000,6.000000,0.500000,1.000000
Dafq7m1z,200,1, test, 8, 1, 13, 2, 1, 1, 2, 0.45, 0.35, right, 2, 0.35, 0.45, 0.55, 0.65, 0.46155939996242523, 0, 6.000000,79.000000,1.000000,6.000000,0.500000,1.000000
Dafq7m1z,200,1, test, 8, 1, 14, 4, 1, 1, 4, 0.65, 0.35, right, 2, 0.35, 0.45, 0.55, 0.65, 0.37322269985452294, 1, 7.000000,80.000000,1.000000,6.000000,0.500000,1.000000
Dafq7m1z,200,1, test, 8, 1, 15, 1, 4, 1, 4, 0.35, 0.65, left, 1, 0.35, 0.45, 0.55, 0.65, 0.506151600042358, 1, 8.000000,81.000000,1.000000,6.000000,0.500000,1.000000
Dafq7m1z,200,1, test, 8, 1, 16, 4, 1, 1, 4, 0.65, 0.35, right, 2, 0.35, 0.45, 0.55, 0.65, 0.5158023999538273, 0, 8.000000,81.000000,1.000000,6.000000,0.500000,1.000000
Dafq7m1z,200,1, test, 8, 1, 17, 2, 1, 1, 2, 0.45, 0.35, right, 2, 0.35, 0.45, 0.55, 0.65, 0.5655294999014586, 0, 8.000000,81.000000,1.000000,6.000000,0.500000,1.000000
Dafq7m1z,200,1, test, 8, 1, 18, 2, 4, 2, 4, 0.45, 0.65, left, 1, 0.35, 0.45, 0.55, 0.65, 0.39389419998042285, 1, 9.000000,82.000000,1.000000,6.000000,0.500000,1.000000
Dafq7m1z,200,1, test, 8, 1, 19, 3, 2, 2, 3, 0.55, 0.45, right, 2, 0.35, 0.45, 0.55, 0.65, 0.36724109994247556, 1, 10.000000,83.000000,1.000000,6.000000,0.500000,1.000000
Dafq7m1z,200,1, test, 8, 1, 20, 1, 2, 2, 1, 0.35, 0.45, right, 2, 0.35, 0.45, 0.55, 0.65, 0.1211341000162065, 1, 11.000000,84.000000,1.000000,6.000000,0.500000,1.000000
Dafq7m1z,200,1, test, 8, 1, 21, 3, 2, 3, 2, 0.55, 0.45, left, 1, 0.35, 0.45, 0.55, 0.65, 0.5961623000912368, 0, 11.000000,84.000000,1.000000,6.000000,0.500000,1.000000
Dafq7m1z,200,1, test, 8, 1, 22, 1, 4, 1, 4, 0.35, 0.65, left, 1, 0.35, 0.45, 0.55, 0.65, 0.8098473001737148, 0, 11.000000,84.000000,1.000000,6.000000,0.500000,1.000000
Dafq7m1z,200,1, test, 8, 1, 23, 4, 3, 4, 3, 0.65, 0.55, left, 1, 0.35, 0.45, 0.55, 0.65, 0.5985208000056446, 1, 12.000000,85.000000,1.000000,6.000000,0.500000,1.000000
Dafq7m1z,200,1, test, 8, 1, 24, 2, 1, 2, 1, 0.45, 0.35, left, 1, 0.35, 0.45, 0.55, 0.65, 0.39861549995839596, 0, 12.000000,85.000000,1.000000,6.000000,0.500000,1.000000
Dafq7m1z,200,1, test, 8, 1, 25, 4, 2, 4, 2, 0.65, 0.45, left, 1, 0.35, 0.45, 0.55, 0.65, 1.1717954000923783, 1, 13.000000,86.000000,1.000000,6.000000,0.500000,1.000000
