ShaharID, group, counterbalance, block_type, block, delay_condition, trial, chosen, unchosen, offer_left_image, offer_right_image, exp_value_chosen, exp_value_unchosen, choice_location, choice_key, exp_value1, exp_value2, exp_value3, exp_value4, RT, reward, coins_per_block, coins_per_task,ITI_duration,rt_deadline,choice_feedback_duration,outcome_duration
M7YCHjaQ,100,0, practice, 1, 1, 1, 1, 3, 1, 3, 0.35, 0.55, left, 1, 0.35, 0.45, 0.55, 0.65, 0.917705300002126, 0, 0.000000,0.000000,1.000000,6.000000,0.500000,1.000000
M7YCHjaQ,100,0, practice, 1, 1, 2, 2, 1, 1, 2, 0.45, 0.35, right, 2, 0.35, 0.45, 0.55, 0.65, 0.832938200001081, 1, 1.000000,1.000000,1.000000,6.000000,0.500000,1.000000
M7YCHjaQ,100,0, practice, 1, 1, 3, 3, 1, 3, 1, 0.55, 0.35, left, 1, 0.35, 0.45, 0.55, 0.65, 0.8670655000023544, 0, 1.000000,1.000000,1.000000,6.000000,0.500000,1.000000
M7YCHjaQ,100,0, practice, 1, 1, 4, 2, 4, 2, 4, 0.45, 0.65, left, 1, 0.35, 0.45, 0.55, 0.65, 0.9087811999997939, 0, 1.000000,1.000000,1.000000,6.000000,0.500000,1.000000
M7YCHjaQ,100,0, practice, 1, 1, 5, 3, 2, 2, 3, 0.55, 0.45, right, 2, 0.35, 0.45, 0.55, 0.65, 0.832818100003351, 0, 1.000000,1.000000,1.000000,6.000000,0.500000,1.000000
M7YCHjaQ,100,0, test, 1, 1, 1, 2, 3, 2, 3, 0.45, 0.55, left, 1, 0.35, 0.45, 0.55, 0.65, 0.6233413999943878, 0, 0.000000,1.000000,1.000000,6.000000,0.500000,1.000000
M7YCHjaQ,100,0, test, 1, 1, 2, 3, 1, 1, 3, 0.55, 0.35, right, 2, 0.35, 0.45, 0.55, 0.65, 0.8267236000028788, 1, 1.000000,2.000000,1.000000,6.000000,0.500000,1.000000
M7YCHjaQ,100,0, test, 1, 1, 3, 3, 1, 3, 1, 0.55, 0.35, left, 1, 0.35, 0.45, 0.55, 0.65, 0.6794282000046223, 0, 1.000000,2.000000,1.000000,6.000000,0.500000,1.000000
M7YCHjaQ,100,0, test, 1, 1, 4, 3, 4, 4, 3, 0.55, 0.65, right, 2, 0.35, 0.45, 0.55, 0.65, 0.7094570000044769, 0, 1.000000,2.000000,1.000000,6.000000,0.500000,1.000000
M7YCHjaQ,100,0, test, 1, 1, 5, 1, 2, 2, 1, 0.35, 0.45, right, 2, 0.35, 0.45, 0.55, 0.65, 1.1699845000039204, 0, 1.000000,2.000000,1.000000,6.000000,0.500000,1.000000
M7YCHjaQ,100,0, test, 1, 1, 6, 4, 1, 1, 4, 0.65, 0.35, right, 2, 0.35, 0.45, 0.55, 0.65, 0.8441422000032617, 0, 1.000000,2.000000,1.000000,6.000000,0.500000,1.000000
M7YCHjaQ,100,0, test, 1, 1, 7, 3, 1, 1, 3, 0.55, 0.35, right, 2, 0.35, 0.45, 0.55, 0.65, 1.4394192000036128, 0, 1.000000,2.000000,1.000000,6.000000,0.500000,1.000000
M7YCHjaQ,100,0, test, 1, 1, 8, 4, 2, 4, 2, 0.65, 0.45, left, 1, 0.35, 0.45, 0.55, 0.65, 0.7546556000015698, 0, 1.000000,2.000000,1.000000,6.000000,0.500000,1.000000
M7YCHjaQ,100,0, test, 1, 1, 9, 1, 4, 4, 1, 0.35, 0.65, right, 2, 0.35, 0.45, 0.55, 0.65, 0.7212540999971679, 0, 1.000000,2.000000,1.000000,6.000000,0.500000,1.000000
M7YCHjaQ,100,0, test, 1, 1, 10, 1, 2, 1, 2, 0.35, 0.45, left, 1, 0.35, 0.45, 0.55, 0.65, 0.9892010999974445, 0, 1.000000,2.000000,1.000000,6.000000,0.500000,1.000000
M7YCHjaQ,100,0, test, 1, 1, 11, 3, 4, 3, 4, 0.55, 0.65, left, 1, 0.35, 0.45, 0.55, 0.65, 0.7825187999987975, 1, 2.000000,3.000000,1.000000,6.000000,0.500000,1.000000
M7YCHjaQ,100,0, test, 1, 1, 12, 2, 4, 2, 4, 0.45, 0.65, left, 1, 0.35, 0.45, 0.55, 0.65, 0.7878595000001951, 0, 2.000000,3.000000,1.000000,6.000000,0.500000,1.000000
M7YCHjaQ,100,0, test, 1, 1, 13, 3, 2, 2, 3, 0.55, 0.45, right, 2, 0.35, 0.45, 0.55, 0.65, 0.7213088999997126, 0, 2.000000,3.000000,1.000000,6.000000,0.500000,1.000000
M7YCHjaQ,100,0, test, 1, 1, 14, 4, 1, 1, 4, 0.65, 0.35, right, 2, 0.35, 0.45, 0.55, 0.65, 0.8532749000005424, 0, 2.000000,3.000000,1.000000,6.000000,0.500000,1.000000
M7YCHjaQ,100,0, test, 1, 1, 15, 2, 4, 4, 2, 0.45, 0.65, right, 2, 0.35, 0.45, 0.55, 0.65, 0.9718652000010479, 1, 3.000000,4.000000,1.000000,6.000000,0.500000,1.000000
M7YCHjaQ,100,0, test, 1, 1, 16, 3, 2, 2, 3, 0.55, 0.45, right, 2, 0.35, 0.45, 0.55, 0.65, 1.4057941999999457, 0, 3.000000,4.000000,1.000000,6.000000,0.500000,1.000000
M7YCHjaQ,100,0, test, 1, 1, 17, 4, 3, 3, 4, 0.65, 0.55, right, 2, 0.35, 0.45, 0.55, 0.65, 1.0506157999989227, 1, 4.000000,5.000000,1.000000,6.000000,0.500000,1.000000
M7YCHjaQ,100,0, test, 1, 1, 18, 2, 4, 4, 2, 0.45, 0.65, right, 2, 0.35, 0.45, 0.55, 0.65, 1.9412699000022258, 1, 5.000000,6.000000,1.000000,6.000000,0.500000,1.000000
M7YCHjaQ,100,0, test, 1, 1, 19, 1, 2, 2, 1, 0.35, 0.45, right, 2, 0.35, 0.45, 0.55, 0.65, 1.8164730999997118, 1, 6.000000,7.000000,1.000000,6.000000,0.500000,1.000000
M7YCHjaQ,100,0, test, 1, 1, 20, 2, 4, 4, 2, 0.45, 0.65, right, 2, 0.35, 0.45, 0.55, 0.65, 1.0646844000002602, 0, 6.000000,7.000000,1.000000,6.000000,0.500000,1.000000
M7YCHjaQ,100,0, test, 1, 1, 21, 1, 3, 1, 3, 0.35, 0.55, left, 1, 0.35, 0.45, 0.55, 0.65, 1.0265855999969062, 0, 6.000000,7.000000,1.000000,6.000000,0.500000,1.000000
M7YCHjaQ,100,0, test, 1, 1, 22, 1, 4, 4, 1, 0.35, 0.65, right, 2, 0.35, 0.45, 0.55, 0.65, 0.7008801999982097, 0, 6.000000,7.000000,1.000000,6.000000,0.500000,1.000000
M7YCHjaQ,100,0, test, 1, 1, 23, 4, 1, 1, 4, 0.65, 0.35, right, 2, 0.35, 0.45, 0.55, 0.65, 0.8885026999996626, 1, 7.000000,8.000000,1.000000,6.000000,0.500000,1.000000
M7YCHjaQ,100,0, test, 1, 1, 24, 3, 4, 4, 3, 0.55, 0.65, right, 2, 0.35, 0.45, 0.55, 0.65, 0.9818599999998696, 1, 8.000000,9.000000,1.000000,6.000000,0.500000,1.000000
M7YCHjaQ,100,0, test, 1, 1, 25, 2, 4, 2, 4, 0.45, 0.65, left, 1, 0.35, 0.45, 0.55, 0.65, 1.3391952000019955, 1, 9.000000,10.000000,1.000000,6.000000,0.500000,1.000000
M7YCHjaQ,100,0, test, 2, 7, 1, 1, 4, 4, 1, 0.35, 0.65, right, 2, 0.35, 0.45, 0.55, 0.65, 0.8198095000043395, 0, 0.000000,10.000000,1.000000,6.000000,0.500000,1.000000
M7YCHjaQ,100,0, test, 2, 7, 2, 4, 1, 1, 4, 0.65, 0.35, right, 2, 0.35, 0.45, 0.55, 0.65, 1.1676217999993241, 1, 1.000000,11.000000,1.000000,6.000000,0.500000,1.000000
M7YCHjaQ,100,0, test, 2, 7, 3, 2, 1, 1, 2, 0.45, 0.35, right, 2, 0.35, 0.45, 0.55, 0.65, 1.8057427000021562, 0, 1.000000,11.000000,1.000000,6.000000,0.500000,1.000000
M7YCHjaQ,100,0, test, 2, 7, 4, 4, 1, 1, 4, 0.65, 0.35, right, 2, 0.35, 0.45, 0.55, 0.65, 1.4865030000000843, 0, 1.000000,11.000000,1.000000,6.000000,0.500000,1.000000
M7YCHjaQ,100,0, test, 2, 7, 5, 1, 2, 1, 2, 0.35, 0.45, left, 1, 0.35, 0.45, 0.55, 0.65, 2.6556487000052584, 1, 2.000000,12.000000,1.000000,6.000000,0.500000,1.000000
M7YCHjaQ,100,0, test, 2, 7, 6, 4, 1, 4, 1, 0.65, 0.35, left, 1, 0.35, 0.45, 0.55, 0.65, 1.8768267999985255, 1, 3.000000,13.000000,1.000000,6.000000,0.500000,1.000000
M7YCHjaQ,100,0, test, 2, 7, 7, 3, 1, 3, 1, 0.55, 0.35, left, 1, 0.35, 0.45, 0.55, 0.65, 1.0311061999964295, 1, 4.000000,14.000000,1.000000,6.000000,0.500000,1.000000
M7YCHjaQ,100,0, test, 2, 7, 8, 2, 4, 4, 2, 0.45, 0.65, right, 2, 0.35, 0.45, 0.55, 0.65, 1.4861612999957288, 0, 4.000000,14.000000,1.000000,6.000000,0.500000,1.000000
M7YCHjaQ,100,0, test, 2, 7, 9, 3, 1, 1, 3, 0.55, 0.35, right, 2, 0.35, 0.45, 0.55, 0.65, 1.6554876000009244, 0, 4.000000,14.000000,1.000000,6.000000,0.500000,1.000000
M7YCHjaQ,100,0, test, 2, 7, 10, 2, 4, 4, 2, 0.45, 0.65, right, 2, 0.35, 0.45, 0.55, 0.65, 2.0901672999971197, 0, 4.000000,14.000000,1.000000,6.000000,0.500000,1.000000
M7YCHjaQ,100,0, test, 2, 7, 11, 3, 2, 2, 3, 0.55, 0.45, right, 2, 0.35, 0.45, 0.55, 0.65, 2.1356973000001744, 0, 4.000000,14.000000,1.000000,6.000000,0.500000,1.000000
M7YCHjaQ,100,0, test, 2, 7, 12, 3, 1, 1, 3, 0.55, 0.35, right, 2, 0.35, 0.45, 0.55, 0.65, 1.0867074000052526, 1, 5.000000,15.000000,1.000000,6.000000,0.500000,1.000000
M7YCHjaQ,100,0, test, 2, 7, 13, 3, 2, 2, 3, 0.55, 0.45, right, 2, 0.35, 0.45, 0.55, 0.65, 2.6362034999983734, 0, 5.000000,15.000000,1.000000,6.000000,0.500000,1.000000
M7YCHjaQ,100,0, test, 2, 7, 14, 4, 2, 2, 4, 0.65, 0.45, right, 2, 0.35, 0.45, 0.55, 0.65, 1.3154456000047503, 0, 5.000000,15.000000,1.000000,6.000000,0.500000,1.000000
M7YCHjaQ,100,0, test, 2, 7, 15, 2, 1, 2, 1, 0.45, 0.35, left, 1, 0.35, 0.45, 0.55, 0.65, 1.4873366999963764, 0, 5.000000,15.000000,1.000000,6.000000,0.500000,1.000000
M7YCHjaQ,100,0, test, 2, 7, 16, 3, 2, 2, 3, 0.55, 0.45, right, 2, 0.35, 0.45, 0.55, 0.65, 2.4845606999951997, 1, 6.000000,16.000000,1.000000,6.000000,0.500000,1.000000
M7YCHjaQ,100,0, test, 2, 7, 17, 2, 4, 4, 2, 0.45, 0.65, right, 2, 0.35, 0.45, 0.55, 0.65, 2.5178680999961216, 0, 6.000000,16.000000,1.000000,6.000000,0.500000,1.000000
M7YCHjaQ,100,0, test, 2, 7, 18, 3, 4, 4, 3, 0.55, 0.65, right, 2, 0.35, 0.45, 0.55, 0.65, 2.285806899999443, 0, 6.000000,16.000000,1.000000,6.000000,0.500000,1.000000
M7YCHjaQ,100,0, test, 2, 7, 19, 4, 1, 1, 4, 0.65, 0.35, right, 2, 0.35, 0.45, 0.55, 0.65, 2.2592673000035575, 1, 7.000000,17.000000,1.000000,6.000000,0.500000,1.000000
M7YCHjaQ,100,0, test, 2, 7, 20, 4, 1, 1, 4, 0.65, 0.35, right, 2, 0.35, 0.45, 0.55, 0.65, 1.3978667000046698, 1, 8.000000,18.000000,1.000000,6.000000,0.500000,1.000000
M7YCHjaQ,100,0, test, 2, 7, 21, 2, 3, 2, 3, 0.45, 0.55, left, 1, 0.35, 0.45, 0.55, 0.65, 2.6584148999972967, 0, 8.000000,18.000000,1.000000,6.000000,0.500000,1.000000
M7YCHjaQ,100,0, test, 2, 7, 22, 1, 3, 3, 1, 0.35, 0.55, right, 2, 0.35, 0.45, 0.55, 0.65, 1.9449506000019028, 1, 9.000000,19.000000,1.000000,6.000000,0.500000,1.000000
M7YCHjaQ,100,0, test, 2, 7, 23, 4, 1, 4, 1, 0.65, 0.35, left, 1, 0.35, 0.45, 0.55, 0.65, 2.2402576000022236, 0, 9.000000,19.000000,1.000000,6.000000,0.500000,1.000000
M7YCHjaQ,100,0, test, 2, 7, 24, 1, 3, 3, 1, 0.35, 0.55, right, 2, 0.35, 0.45, 0.55, 0.65, 1.1304056000008131, 1, 10.000000,20.000000,1.000000,6.000000,0.500000,1.000000
M7YCHjaQ,100,0, test, 2, 7, 25, 3, 4, 4, 3, 0.55, 0.65, right, 2, 0.35, 0.45, 0.55, 0.65, 2.237773000000743, 1, 11.000000,21.000000,1.000000,6.000000,0.500000,1.000000
M7YCHjaQ,100,0, test, 3, 1, 1, 3, 2, 3, 2, 0.55, 0.45, left, 1, 0.35, 0.45, 0.55, 0.65, 0.8435650000028545, 1, 1.000000,22.000000,1.000000,6.000000,0.500000,1.000000
M7YCHjaQ,100,0, test, 3, 1, 2, 3, 1, 3, 1, 0.55, 0.35, left, 1, 0.35, 0.45, 0.55, 0.65, 0.5256077000012738, 0, 1.000000,22.000000,1.000000,6.000000,0.500000,1.000000
M7YCHjaQ,100,0, test, 3, 1, 3, 1, 4, 4, 1, 0.35, 0.65, right, 2, 0.35, 0.45, 0.55, 0.65, 1.0868215999944368, 1, 2.000000,23.000000,1.000000,6.000000,0.500000,1.000000
M7YCHjaQ,100,0, test, 3, 1, 4, 1, 3, 1, 3, 0.35, 0.55, left, 1, 0.35, 0.45, 0.55, 0.65, 0.976137599995127, 0, 2.000000,23.000000,1.000000,6.000000,0.500000,1.000000
M7YCHjaQ,100,0, test, 3, 1, 5, 1, 4, 4, 1, 0.35, 0.65, right, 2, 0.35, 0.45, 0.55, 0.65, 1.1463275999994949, 0, 2.000000,23.000000,1.000000,6.000000,0.500000,1.000000
M7YCHjaQ,100,0, test, 3, 1, 6, 3, 4, 3, 4, 0.55, 0.65, left, 1, 0.35, 0.45, 0.55, 0.65, 0.944893800005957, 1, 3.000000,24.000000,1.000000,6.000000,0.500000,1.000000
M7YCHjaQ,100,0, test, 3, 1, 7, 2, 4, 4, 2, 0.45, 0.65, right, 2, 0.35, 0.45, 0.55, 0.65, 0.6920721000060439, 0, 3.000000,24.000000,1.000000,6.000000,0.500000,1.000000
M7YCHjaQ,100,0, test, 3, 1, 8, 1, 4, 1, 4, 0.35, 0.65, left, 1, 0.35, 0.45, 0.55, 0.65, 1.405641999997897, 1, 4.000000,25.000000,1.000000,6.000000,0.500000,1.000000
M7YCHjaQ,100,0, test, 3, 1, 9, 3, 4, 4, 3, 0.55, 0.65, right, 2, 0.35, 0.45, 0.55, 0.65, 0.9141115000020363, 1, 5.000000,26.000000,1.000000,6.000000,0.500000,1.000000
M7YCHjaQ,100,0, test, 3, 1, 10, 2, 1, 2, 1, 0.45, 0.35, left, 1, 0.35, 0.45, 0.55, 0.65, 1.4060484000001452, 0, 5.000000,26.000000,1.000000,6.000000,0.500000,1.000000
M7YCHjaQ,100,0, test, 3, 1, 11, 3, 4, 4, 3, 0.55, 0.65, right, 2, 0.35, 0.45, 0.55, 0.65, 0.9428655000010622, 0, 5.000000,26.000000,1.000000,6.000000,0.500000,1.000000
M7YCHjaQ,100,0, test, 3, 1, 12, 3, 2, 3, 2, 0.55, 0.45, left, 1, 0.35, 0.45, 0.55, 0.65, 1.6102429000020493, 0, 5.000000,26.000000,1.000000,6.000000,0.500000,1.000000
M7YCHjaQ,100,0, test, 3, 1, 13, 4, 1, 1, 4, 0.65, 0.35, right, 2, 0.35, 0.45, 0.55, 0.65, 0.7828088000023854, 1, 6.000000,27.000000,1.000000,6.000000,0.500000,1.000000
M7YCHjaQ,100,0, test, 3, 1, 14, 3, 4, 4, 3, 0.55, 0.65, right, 2, 0.35, 0.45, 0.55, 0.65, 0.6600150000012945, 1, 7.000000,28.000000,1.000000,6.000000,0.500000,1.000000
M7YCHjaQ,100,0, test, 3, 1, 15, 1, 2, 2, 1, 0.35, 0.45, right, 2, 0.35, 0.45, 0.55, 0.65, 1.3588648999939323, 0, 7.000000,28.000000,1.000000,6.000000,0.500000,1.000000
M7YCHjaQ,100,0, test, 3, 1, 16, 1, 3, 3, 1, 0.35, 0.55, right, 2, 0.35, 0.45, 0.55, 0.65, 1.8654865999997128, 1, 8.000000,29.000000,1.000000,6.000000,0.500000,1.000000
M7YCHjaQ,100,0, test, 3, 1, 17, 3, 4, 3, 4, 0.55, 0.65, left, 1, 0.35, 0.45, 0.55, 0.65, 1.7431758999955491, 0, 8.000000,29.000000,1.000000,6.000000,0.500000,1.000000
M7YCHjaQ,100,0, test, 3, 1, 18, 1, 4, 1, 4, 0.35, 0.65, left, 1, 0.35, 0.45, 0.55, 0.65, 0.6826884000038262, 0, 8.000000,29.000000,1.000000,6.000000,0.500000,1.000000
M7YCHjaQ,100,0, test, 3, 1, 19, 3, 2, 2, 3, 0.55, 0.45, right, 2, 0.35, 0.45, 0.55, 0.65, 1.2399957999950857, 1, 9.000000,30.000000,1.000000,6.000000,0.500000,1.000000
M7YCHjaQ,100,0, test, 3, 1, 20, 4, 3, 3, 4, 0.65, 0.55, right, 2, 0.35, 0.45, 0.55, 0.65, 0.8818010999966646, 1, 10.000000,31.000000,1.000000,6.000000,0.500000,1.000000
M7YCHjaQ,100,0, test, 3, 1, 21, 4, 3, 3, 4, 0.65, 0.55, right, 2, 0.35, 0.45, 0.55, 0.65, 0.583260400002473, 0, 10.000000,31.000000,1.000000,6.000000,0.500000,1.000000
M7YCHjaQ,100,0, test, 3, 1, 22, 4, 3, 4, 3, 0.65, 0.55, left, 1, 0.35, 0.45, 0.55, 0.65, 1.1926046999942628, 1, 11.000000,32.000000,1.000000,6.000000,0.500000,1.000000
M7YCHjaQ,100,0, test, 3, 1, 23, 2, 1, 1, 2, 0.45, 0.35, right, 2, 0.35, 0.45, 0.55, 0.65, 0.7257468000025256, 1, 12.000000,33.000000,1.000000,6.000000,0.500000,1.000000
M7YCHjaQ,100,0, test, 3, 1, 24, 4, 2, 2, 4, 0.65, 0.45, right, 2, 0.35, 0.45, 0.55, 0.65, 1.009863499995845, 1, 13.000000,34.000000,1.000000,6.000000,0.500000,1.000000
M7YCHjaQ,100,0, test, 3, 1, 25, 1, 2, 2, 1, 0.35, 0.45, right, 2, 0.35, 0.45, 0.55, 0.65, 0.7224046000046656, 1, 14.000000,35.000000,1.000000,6.000000,0.500000,1.000000
M7YCHjaQ,100,0, test, 4, 7, 1, 1, 2, 2, 1, 0.35, 0.45, right, 2, 0.35, 0.45, 0.55, 0.65, 0.7078298999986146, 1, 1.000000,36.000000,1.000000,6.000000,0.500000,1.000000
M7YCHjaQ,100,0, test, 4, 7, 2, 4, 3, 4, 3, 0.65, 0.55, left, 1, 0.35, 0.45, 0.55, 0.65, 0.6804040999995777, 0, 1.000000,36.000000,1.000000,6.000000,0.500000,1.000000
M7YCHjaQ,100,0, test, 4, 7, 3, 3, 4, 4, 3, 0.55, 0.65, right, 2, 0.35, 0.45, 0.55, 0.65, 1.1977736999979243, 0, 1.000000,36.000000,1.000000,6.000000,0.500000,1.000000
M7YCHjaQ,100,0, test, 4, 7, 4, 1, 2, 1, 2, 0.35, 0.45, left, 1, 0.35, 0.45, 0.55, 0.65, 1.1624752999996417, 0, 1.000000,36.000000,1.000000,6.000000,0.500000,1.000000
M7YCHjaQ,100,0, test, 4, 7, 5, 2, 1, 2, 1, 0.45, 0.35, left, 1, 0.35, 0.45, 0.55, 0.65, 1.5250378000055207, 1, 2.000000,37.000000,1.000000,6.000000,0.500000,1.000000
M7YCHjaQ,100,0, test, 4, 7, 6, 1, 4, 1, 4, 0.35, 0.65, left, 1, 0.35, 0.45, 0.55, 0.65, 0.8449748999992153, 0, 2.000000,37.000000,1.000000,6.000000,0.500000,1.000000
M7YCHjaQ,100,0, test, 4, 7, 7, 1, 2, 2, 1, 0.35, 0.45, right, 2, 0.35, 0.45, 0.55, 0.65, 1.6803192000006675, 0, 2.000000,37.000000,1.000000,6.000000,0.500000,1.000000
M7YCHjaQ,100,0, test, 4, 7, 8, 2, 4, 2, 4, 0.45, 0.65, left, 1, 0.35, 0.45, 0.55, 0.65, 1.1336168999987422, 0, 2.000000,37.000000,1.000000,6.000000,0.500000,1.000000
M7YCHjaQ,100,0, test, 4, 7, 9, 3, 4, 3, 4, 0.55, 0.65, left, 1, 0.35, 0.45, 0.55, 0.65, 1.136922699995921, 1, 3.000000,38.000000,1.000000,6.000000,0.500000,1.000000
M7YCHjaQ,100,0, test, 4, 7, 10, 3, 2, 2, 3, 0.55, 0.45, right, 2, 0.35, 0.45, 0.55, 0.65, 2.380104500000016, 0, 3.000000,38.000000,1.000000,6.000000,0.500000,1.000000
M7YCHjaQ,100,0, test, 4, 7, 11, 2, 3, 3, 2, 0.45, 0.55, right, 2, 0.35, 0.45, 0.55, 0.65, 2.037549000000581, 1, 4.000000,39.000000,1.000000,6.000000,0.500000,1.000000
M7YCHjaQ,100,0, test, 4, 7, 12, 3, 4, 3, 4, 0.55, 0.65, left, 1, 0.35, 0.45, 0.55, 0.65, 2.3050330999976723, 0, 4.000000,39.000000,1.000000,6.000000,0.500000,1.000000
M7YCHjaQ,100,0, test, 4, 7, 13, 2, 3, 3, 2, 0.45, 0.55, right, 2, 0.35, 0.45, 0.55, 0.65, 1.1054533999995328, 1, 5.000000,40.000000,1.000000,6.000000,0.500000,1.000000
M7YCHjaQ,100,0, test, 4, 7, 14, 1, 4, 4, 1, 0.35, 0.65, right, 2, 0.35, 0.45, 0.55, 0.65, 1.066187099997478, 0, 5.000000,40.000000,1.000000,6.000000,0.500000,1.000000
M7YCHjaQ,100,0, test, 4, 7, 15, 1, 2, 1, 2, 0.35, 0.45, left, 1, 0.35, 0.45, 0.55, 0.65, 1.4323187999980291, 0, 5.000000,40.000000,1.000000,6.000000,0.500000,1.000000
M7YCHjaQ,100,0, test, 4, 7, 16, 2, 1, 1, 2, 0.45, 0.35, right, 2, 0.35, 0.45, 0.55, 0.65, 0.6682275999992271, 0, 5.000000,40.000000,1.000000,6.000000,0.500000,1.000000
M7YCHjaQ,100,0, test, 4, 7, 17, 3, 2, 3, 2, 0.55, 0.45, left, 1, 0.35, 0.45, 0.55, 0.65, 0.556541499994637, 1, 6.000000,41.000000,1.000000,6.000000,0.500000,1.000000
M7YCHjaQ,100,0, test, 4, 7, 18, 1, 3, 3, 1, 0.35, 0.55, right, 2, 0.35, 0.45, 0.55, 0.65, 1.131385799999407, 1, 7.000000,42.000000,1.000000,6.000000,0.500000,1.000000
M7YCHjaQ,100,0, test, 4, 7, 19, 4, 1, 4, 1, 0.65, 0.35, left, 1, 0.35, 0.45, 0.55, 0.65, 0.70646719999786, 1, 8.000000,43.000000,1.000000,6.000000,0.500000,1.000000
M7YCHjaQ,100,0, test, 4, 7, 20, 3, 4, 4, 3, 0.55, 0.65, right, 2, 0.35, 0.45, 0.55, 0.65, 0.5872057000015047, 0, 8.000000,43.000000,1.000000,6.000000,0.500000,1.000000
M7YCHjaQ,100,0, test, 4, 7, 21, 1, 4, 1, 4, 0.35, 0.65, left, 1, 0.35, 0.45, 0.55, 0.65, 1.3444745000015246, 0, 8.000000,43.000000,1.000000,6.000000,0.500000,1.000000
M7YCHjaQ,100,0, test, 4, 7, 22, 2, 3, 2, 3, 0.45, 0.55, left, 1, 0.35, 0.45, 0.55, 0.65, 0.7358391000016127, 0, 8.000000,43.000000,1.000000,6.000000,0.500000,1.000000
M7YCHjaQ,100,0, test, 4, 7, 23, 4, 1, 1, 4, 0.65, 0.35, right, 2, 0.35, 0.45, 0.55, 0.65, 0.5070166000004974, 0, 8.000000,43.000000,1.000000,6.000000,0.500000,1.000000
M7YCHjaQ,100,0, test, 4, 7, 24, 2, 3, 2, 3, 0.45, 0.55, left, 1, 0.35, 0.45, 0.55, 0.65, 0.7876221000042278, 0, 8.000000,43.000000,1.000000,6.000000,0.500000,1.000000
M7YCHjaQ,100,0, test, 4, 7, 25, 1, 3, 3, 1, 0.35, 0.55, right, 2, 0.35, 0.45, 0.55, 0.65, 0.6649510999995982, 1, 9.000000,44.000000,1.000000,6.000000,0.500000,1.000000
M7YCHjaQ,100,0, test, 5, 1, 1, 2, 4, 4, 2, 0.45, 0.65, right, 2, 0.35, 0.45, 0.55, 0.65, 0.5248232000012649, 0, 0.000000,44.000000,1.000000,6.000000,0.500000,1.000000
M7YCHjaQ,100,0, test, 5, 1, 2, 1, 4, 4, 1, 0.35, 0.65, right, 2, 0.35, 0.45, 0.55, 0.65, 1.5691080000033253, 0, 0.000000,44.000000,1.000000,6.000000,0.500000,1.000000
M7YCHjaQ,100,0, test, 5, 1, 3, 2, 1, 1, 2, 0.45, 0.35, right, 2, 0.35, 0.45, 0.55, 0.65, 1.7749821999968844, 0, 0.000000,44.000000,1.000000,6.000000,0.500000,1.000000
M7YCHjaQ,100,0, test, 5, 1, 4, 3, 4, 4, 3, 0.55, 0.65, right, 2, 0.35, 0.45, 0.55, 0.65, 1.0289122999965912, 0, 0.000000,44.000000,1.000000,6.000000,0.500000,1.000000
M7YCHjaQ,100,0, test, 5, 1, 5, 4, 2, 4, 2, 0.65, 0.45, left, 1, 0.35, 0.45, 0.55, 0.65, 0.6208561999956146, 1, 1.000000,45.000000,1.000000,6.000000,0.500000,1.000000
M7YCHjaQ,100,0, test, 5, 1, 6, 1, 2, 1, 2, 0.35, 0.45, left, 1, 0.35, 0.45, 0.55, 0.65, 0.936700699996436, 0, 1.000000,45.000000,1.000000,6.000000,0.500000,1.000000
M7YCHjaQ,100,0, test, 5, 1, 7, 3, 1, 3, 1, 0.55, 0.35, left, 1, 0.35, 0.45, 0.55, 0.65, 1.1841301999957068, 0, 1.000000,45.000000,1.000000,6.000000,0.500000,1.000000
M7YCHjaQ,100,0, test, 5, 1, 8, 1, 3, 3, 1, 0.35, 0.55, right, 2, 0.35, 0.45, 0.55, 0.65, 0.6734474999975646, 0, 1.000000,45.000000,1.000000,6.000000,0.500000,1.000000
M7YCHjaQ,100,0, test, 5, 1, 9, 4, 3, 4, 3, 0.65, 0.55, left, 1, 0.35, 0.45, 0.55, 0.65, 0.7474682999963989, 0, 1.000000,45.000000,1.000000,6.000000,0.500000,1.000000
M7YCHjaQ,100,0, test, 5, 1, 10, 1, 2, 2, 1, 0.35, 0.45, right, 2, 0.35, 0.45, 0.55, 0.65, 1.5821132999990368, 0, 1.000000,45.000000,1.000000,6.000000,0.500000,1.000000
M7YCHjaQ,100,0, test, 5, 1, 11, 3, 1, 1, 3, 0.55, 0.35, right, 2, 0.35, 0.45, 0.55, 0.65, 1.4715403000009246, 0, 1.000000,45.000000,1.000000,6.000000,0.500000,1.000000
M7YCHjaQ,100,0, test, 5, 1, 12, 2, 1, 2, 1, 0.45, 0.35, left, 1, 0.35, 0.45, 0.55, 0.65, 1.1094507000016165, 0, 1.000000,45.000000,1.000000,6.000000,0.500000,1.000000
M7YCHjaQ,100,0, test, 5, 1, 13, 3, 2, 2, 3, 0.55, 0.45, right, 2, 0.35, 0.45, 0.55, 0.65, 1.081955100002233, 1, 2.000000,46.000000,1.000000,6.000000,0.500000,1.000000
M7YCHjaQ,100,0, test, 5, 1, 14, 3, 2, 3, 2, 0.55, 0.45, left, 1, 0.35, 0.45, 0.55, 0.65, 0.5273478000017349, 0, 2.000000,46.000000,1.000000,6.000000,0.500000,1.000000
M7YCHjaQ,100,0, test, 5, 1, 15, 4, 3, 4, 3, 0.65, 0.55, left, 1, 0.35, 0.45, 0.55, 0.65, 0.7306634999986272, 0, 2.000000,46.000000,1.000000,6.000000,0.500000,1.000000
M7YCHjaQ,100,0, test, 5, 1, 16, 2, 4, 4, 2, 0.45, 0.65, right, 2, 0.35, 0.45, 0.55, 0.65, 0.6580685000008089, 0, 2.000000,46.000000,1.000000,6.000000,0.500000,1.000000
M7YCHjaQ,100,0, test, 5, 1, 17, 4, 2, 2, 4, 0.65, 0.45, right, 2, 0.35, 0.45, 0.55, 0.65, 0.9246028999987175, 1, 3.000000,47.000000,1.000000,6.000000,0.500000,1.000000
M7YCHjaQ,100,0, test, 5, 1, 18, 1, 3, 1, 3, 0.35, 0.55, left, 1, 0.35, 0.45, 0.55, 0.65, 0.7488412000020617, 0, 3.000000,47.000000,1.000000,6.000000,0.500000,1.000000
M7YCHjaQ,100,0, test, 5, 1, 19, 4, 1, 4, 1, 0.65, 0.35, left, 1, 0.35, 0.45, 0.55, 0.65, 0.7632726000010734, 0, 3.000000,47.000000,1.000000,6.000000,0.500000,1.000000
M7YCHjaQ,100,0, test, 5, 1, 20, 4, 1, 4, 1, 0.65, 0.35, left, 1, 0.35, 0.45, 0.55, 0.65, 0.9694377999985591, 1, 4.000000,48.000000,1.000000,6.000000,0.500000,1.000000
M7YCHjaQ,100,0, test, 5, 1, 21, 2, 1, 2, 1, 0.45, 0.35, left, 1, 0.35, 0.45, 0.55, 0.65, 0.643292200002179, 1, 5.000000,49.000000,1.000000,6.000000,0.500000,1.000000
M7YCHjaQ,100,0, test, 5, 1, 22, 3, 4, 4, 3, 0.55, 0.65, right, 2, 0.35, 0.45, 0.55, 0.65, 0.5625563000066904, 1, 6.000000,50.000000,1.000000,6.000000,0.500000,1.000000
M7YCHjaQ,100,0, test, 5, 1, 23, 1, 2, 1, 2, 0.35, 0.45, left, 1, 0.35, 0.45, 0.55, 0.65, 1.2813352000011946, 0, 6.000000,50.000000,1.000000,6.000000,0.500000,1.000000
M7YCHjaQ,100,0, test, 5, 1, 24, 3, 4, 4, 3, 0.55, 0.65, right, 2, 0.35, 0.45, 0.55, 0.65, 0.570475799999258, 1, 7.000000,51.000000,1.000000,6.000000,0.500000,1.000000
M7YCHjaQ,100,0, test, 5, 1, 25, 3, 2, 3, 2, 0.55, 0.45, left, 1, 0.35, 0.45, 0.55, 0.65, 0.6367630000022473, 1, 8.000000,52.000000,1.000000,6.000000,0.500000,1.000000
M7YCHjaQ,100,0, test, 6, 7, 1, 2, 3, 2, 3, 0.45, 0.55, left, 1, 0.35, 0.45, 0.55, 0.65, 0.5593389999994542, 1, 1.000000,53.000000,1.000000,6.000000,0.500000,1.000000
M7YCHjaQ,100,0, test, 6, 7, 2, 1, 4, 4, 1, 0.35, 0.65, right, 2, 0.35, 0.45, 0.55, 0.65, 0.6667916000005789, 0, 1.000000,53.000000,1.000000,6.000000,0.500000,1.000000
M7YCHjaQ,100,0, test, 6, 7, 3, 1, 2, 2, 1, 0.35, 0.45, right, 2, 0.35, 0.45, 0.55, 0.65, 1.1811487000013585, 0, 1.000000,53.000000,1.000000,6.000000,0.500000,1.000000
M7YCHjaQ,100,0, test, 6, 7, 4, 2, 1, 2, 1, 0.45, 0.35, left, 1, 0.35, 0.45, 0.55, 0.65, 0.6245150999966427, 1, 2.000000,54.000000,1.000000,6.000000,0.500000,1.000000
M7YCHjaQ,100,0, test, 6, 7, 5, 2, 3, 3, 2, 0.45, 0.55, right, 2, 0.35, 0.45, 0.55, 0.65, 2.1399334000016097, 1, 3.000000,55.000000,1.000000,6.000000,0.500000,1.000000
M7YCHjaQ,100,0, test, 6, 7, 6, 4, 2, 4, 2, 0.65, 0.45, left, 1, 0.35, 0.45, 0.55, 0.65, 0.7504980000012438, 0, 3.000000,55.000000,1.000000,6.000000,0.500000,1.000000
M7YCHjaQ,100,0, test, 6, 7, 7, 1, 4, 4, 1, 0.35, 0.65, right, 2, 0.35, 0.45, 0.55, 0.65, 0.8689741999987746, 0, 3.000000,55.000000,1.000000,6.000000,0.500000,1.000000
M7YCHjaQ,100,0, test, 6, 7, 8, 3, 2, 3, 2, 0.55, 0.45, left, 1, 0.35, 0.45, 0.55, 0.65, 0.7790934000004199, 1, 4.000000,56.000000,1.000000,6.000000,0.500000,1.000000
M7YCHjaQ,100,0, test, 6, 7, 9, 1, 4, 4, 1, 0.35, 0.65, right, 2, 0.35, 0.45, 0.55, 0.65, 0.8728521999946679, 0, 4.000000,56.000000,1.000000,6.000000,0.500000,1.000000
M7YCHjaQ,100,0, test, 6, 7, 10, 1, 4, 1, 4, 0.35, 0.65, left, 1, 0.35, 0.45, 0.55, 0.65, 0.7103780999968876, 0, 4.000000,56.000000,1.000000,6.000000,0.500000,1.000000
M7YCHjaQ,100,0, test, 6, 7, 11, 1, 4, 4, 1, 0.35, 0.65, right, 2, 0.35, 0.45, 0.55, 0.65, 0.5542627000031644, 1, 5.000000,57.000000,1.000000,6.000000,0.500000,1.000000
M7YCHjaQ,100,0, test, 6, 7, 12, 4, 1, 1, 4, 0.65, 0.35, right, 2, 0.35, 0.45, 0.55, 0.65, 2.2323405999995884, 0, 5.000000,57.000000,1.000000,6.000000,0.500000,1.000000
M7YCHjaQ,100,0, test, 6, 7, 13, 1, 3, 1, 3, 0.35, 0.55, left, 1, 0.35, 0.45, 0.55, 0.65, 1.383648800001538, 0, 5.000000,57.000000,1.000000,6.000000,0.500000,1.000000
M7YCHjaQ,100,0, test, 6, 7, 14, 2, 3, 3, 2, 0.45, 0.55, right, 2, 0.35, 0.45, 0.55, 0.65, 0.7087488000033773, 1, 6.000000,58.000000,1.000000,6.000000,0.500000,1.000000
M7YCHjaQ,100,0, test, 6, 7, 15, 2, 3, 3, 2, 0.45, 0.55, right, 2, 0.35, 0.45, 0.55, 0.65, 0.0001100999943446368, 0, 6.000000,58.000000,1.000000,6.000000,0.500000,1.000000
M7YCHjaQ,100,0, test, 6, 7, 16, 4, 2, 4, 2, 0.65, 0.45, left, 1, 0.35, 0.45, 0.55, 0.65, 0.9621698000046308, 0, 6.000000,58.000000,1.000000,6.000000,0.500000,1.000000
M7YCHjaQ,100,0, test, 6, 7, 17, 2, 1, 2, 1, 0.45, 0.35, left, 1, 0.35, 0.45, 0.55, 0.65, 1.1326938999991398, 1, 7.000000,59.000000,1.000000,6.000000,0.500000,1.000000
M7YCHjaQ,100,0, test, 6, 7, 18, 3, 1, 1, 3, 0.55, 0.35, right, 2, 0.35, 0.45, 0.55, 0.65, 0.00012710000009974465, 1, 8.000000,60.000000,1.000000,6.000000,0.500000,1.000000
M7YCHjaQ,100,0, test, 6, 7, 19, 4, 3, 4, 3, 0.65, 0.55, left, 1, 0.35, 0.45, 0.55, 0.65, 1.080148900000495, 0, 8.000000,60.000000,1.000000,6.000000,0.500000,1.000000
M7YCHjaQ,100,0, test, 6, 7, 20, 4, 3, 4, 3, 0.65, 0.55, left, 1, 0.35, 0.45, 0.55, 0.65, 1.4407407000035164, 0, 8.000000,60.000000,1.000000,6.000000,0.500000,1.000000
M7YCHjaQ,100,0, test, 6, 7, 21, 4, 3, 3, 4, 0.65, 0.55, right, 2, 0.35, 0.45, 0.55, 0.65, 1.0240732000020216, 0, 8.000000,60.000000,1.000000,6.000000,0.500000,1.000000
M7YCHjaQ,100,0, test, 6, 7, 22, 3, 2, 3, 2, 0.55, 0.45, left, 1, 0.35, 0.45, 0.55, 0.65, 0.7438509999992675, 1, 9.000000,61.000000,1.000000,6.000000,0.500000,1.000000
M7YCHjaQ,100,0, test, 6, 7, 23, 1, 3, 1, 3, 0.35, 0.55, left, 1, 0.35, 0.45, 0.55, 0.65, 0.803300700004911, 0, 9.000000,61.000000,1.000000,6.000000,0.500000,1.000000
M7YCHjaQ,100,0, test, 6, 7, 24, 3, 2, 3, 2, 0.55, 0.45, left, 1, 0.35, 0.45, 0.55, 0.65, 1.146735100002843, 1, 10.000000,62.000000,1.000000,6.000000,0.500000,1.000000
M7YCHjaQ,100,0, test, 6, 7, 25, 3, 2, 2, 3, 0.55, 0.45, right, 2, 0.35, 0.45, 0.55, 0.65, 0.6378050000057556, 0, 10.000000,62.000000,1.000000,6.000000,0.500000,1.000000
M7YCHjaQ,100,0, test, 7, 1, 1, 2, 4, 4, 2, 0.45, 0.65, right, 2, 0.35, 0.45, 0.55, 0.65, 1.0103929000033531, 1, 1.000000,63.000000,1.000000,6.000000,0.500000,1.000000
M7YCHjaQ,100,0, test, 7, 1, 2, 3, 1, 3, 1, 0.55, 0.35, left, 1, 0.35, 0.45, 0.55, 0.65, 0.4864311999990605, 1, 2.000000,64.000000,1.000000,6.000000,0.500000,1.000000
M7YCHjaQ,100,0, test, 7, 1, 3, 3, 1, 3, 1, 0.55, 0.35, left, 1, 0.35, 0.45, 0.55, 0.65, 0.7756824000025517, 1, 3.000000,65.000000,1.000000,6.000000,0.500000,1.000000
M7YCHjaQ,100,0, test, 7, 1, 4, 3, 1, 1, 3, 0.55, 0.35, right, 2, 0.35, 0.45, 0.55, 0.65, 0.6729326999993646, 0, 3.000000,65.000000,1.000000,6.000000,0.500000,1.000000
M7YCHjaQ,100,0, test, 7, 1, 5, 3, 2, 3, 2, 0.55, 0.45, left, 1, 0.35, 0.45, 0.55, 0.65, 0.9449405999985174, 0, 3.000000,65.000000,1.000000,6.000000,0.500000,1.000000
M7YCHjaQ,100,0, test, 7, 1, 6, 2, 1, 1, 2, 0.45, 0.35, right, 2, 0.35, 0.45, 0.55, 0.65, 0.847003399998357, 1, 4.000000,66.000000,1.000000,6.000000,0.500000,1.000000
M7YCHjaQ,100,0, test, 7, 1, 7, 4, 1, 4, 1, 0.65, 0.35, left, 1, 0.35, 0.45, 0.55, 0.65, 0.8649977999957628, 0, 4.000000,66.000000,1.000000,6.000000,0.500000,1.000000
M7YCHjaQ,100,0, test, 7, 1, 8, 2, 4, 2, 4, 0.45, 0.65, left, 1, 0.35, 0.45, 0.55, 0.65, 0.7683864999999059, 0, 4.000000,66.000000,1.000000,6.000000,0.500000,1.000000
M7YCHjaQ,100,0, test, 7, 1, 9, 2, 3, 2, 3, 0.45, 0.55, left, 1, 0.35, 0.45, 0.55, 0.65, 0.765733200001705, 1, 5.000000,67.000000,1.000000,6.000000,0.500000,1.000000
M7YCHjaQ,100,0, test, 7, 1, 10, 1, 2, 2, 1, 0.35, 0.45, right, 2, 0.35, 0.45, 0.55, 0.65, 1.079232399999455, 0, 5.000000,67.000000,1.000000,6.000000,0.500000,1.000000
M7YCHjaQ,100,0, test, 7, 1, 11, 3, 1, 3, 1, 0.55, 0.35, left, 1, 0.35, 0.45, 0.55, 0.65, 1.0762703999935184, 1, 6.000000,68.000000,1.000000,6.000000,0.500000,1.000000
M7YCHjaQ,100,0, test, 7, 1, 12, 3, 4, 4, 3, 0.55, 0.65, right, 2, 0.35, 0.45, 0.55, 0.65, 0.8416222000014386, 1, 7.000000,69.000000,1.000000,6.000000,0.500000,1.000000
M7YCHjaQ,100,0, test, 7, 1, 13, 4, 3, 3, 4, 0.65, 0.55, right, 2, 0.35, 0.45, 0.55, 0.65, 1.2499992999946699, 1, 8.000000,70.000000,1.000000,6.000000,0.500000,1.000000
M7YCHjaQ,100,0, test, 7, 1, 14, 3, 1, 3, 1, 0.55, 0.35, left, 1, 0.35, 0.45, 0.55, 0.65, 1.059120100006112, 0, 8.000000,70.000000,1.000000,6.000000,0.500000,1.000000
M7YCHjaQ,100,0, test, 7, 1, 15, 2, 1, 1, 2, 0.45, 0.35, right, 2, 0.35, 0.45, 0.55, 0.65, 1.0409109000029275, 0, 8.000000,70.000000,1.000000,6.000000,0.500000,1.000000
M7YCHjaQ,100,0, test, 7, 1, 16, 3, 1, 3, 1, 0.55, 0.35, left, 1, 0.35, 0.45, 0.55, 0.65, 0.9396956999989925, 1, 9.000000,71.000000,1.000000,6.000000,0.500000,1.000000
M7YCHjaQ,100,0, test, 7, 1, 17, 3, 2, 2, 3, 0.55, 0.45, right, 2, 0.35, 0.45, 0.55, 0.65, 1.062807399997837, 0, 9.000000,71.000000,1.000000,6.000000,0.500000,1.000000
M7YCHjaQ,100,0, test, 7, 1, 18, 4, 1, 1, 4, 0.65, 0.35, right, 2, 0.35, 0.45, 0.55, 0.65, 0.9968669000008958, 1, 10.000000,72.000000,1.000000,6.000000,0.500000,1.000000
M7YCHjaQ,100,0, test, 7, 1, 19, 2, 3, 2, 3, 0.45, 0.55, left, 1, 0.35, 0.45, 0.55, 0.65, 1.7729303000014625, 0, 10.000000,72.000000,1.000000,6.000000,0.500000,1.000000
M7YCHjaQ,100,0, test, 7, 1, 20, 3, 4, 4, 3, 0.55, 0.65, right, 2, 0.35, 0.45, 0.55, 0.65, 0.9302967000039644, 1, 11.000000,73.000000,1.000000,6.000000,0.500000,1.000000
M7YCHjaQ,100,0, test, 7, 1, 21, 1, 4, 1, 4, 0.35, 0.65, left, 1, 0.35, 0.45, 0.55, 0.65, 1.084913400001824, 0, 11.000000,73.000000,1.000000,6.000000,0.500000,1.000000
M7YCHjaQ,100,0, test, 7, 1, 22, 3, 1, 3, 1, 0.55, 0.35, left, 1, 0.35, 0.45, 0.55, 0.65, 1.0502555999992182, 0, 11.000000,73.000000,1.000000,6.000000,0.500000,1.000000
M7YCHjaQ,100,0, test, 7, 1, 23, 2, 1, 1, 2, 0.45, 0.35, right, 2, 0.35, 0.45, 0.55, 0.65, 0.49675310000020545, 0, 11.000000,73.000000,1.000000,6.000000,0.500000,1.000000
M7YCHjaQ,100,0, test, 7, 1, 24, 3, 4, 4, 3, 0.55, 0.65, right, 2, 0.35, 0.45, 0.55, 0.65, 0.5767285999972955, 0, 11.000000,73.000000,1.000000,6.000000,0.500000,1.000000
M7YCHjaQ,100,0, test, 7, 1, 25, 1, 3, 1, 3, 0.35, 0.55, left, 1, 0.35, 0.45, 0.55, 0.65, 1.1902114000040456, 1, 12.000000,74.000000,1.000000,6.000000,0.500000,1.000000
M7YCHjaQ,100,0, test, 8, 7, 1, 1, 2, 2, 1, 0.35, 0.45, right, 2, 0.35, 0.45, 0.55, 0.65, 1.0246850999974413, 1, 1.000000,75.000000,1.000000,6.000000,0.500000,1.000000
M7YCHjaQ,100,0, test, 8, 7, 2, 3, 1, 1, 3, 0.55, 0.35, right, 2, 0.35, 0.45, 0.55, 0.65, 0.9768105000039213, 1, 2.000000,76.000000,1.000000,6.000000,0.500000,1.000000
M7YCHjaQ,100,0, test, 8, 7, 3, 4, 1, 4, 1, 0.65, 0.35, left, 1, 0.35, 0.45, 0.55, 0.65, 1.2346103000018047, 0, 2.000000,76.000000,1.000000,6.000000,0.500000,1.000000
M7YCHjaQ,100,0, test, 8, 7, 4, 3, 4, 4, 3, 0.55, 0.65, right, 2, 0.35, 0.45, 0.55, 0.65, 0.8588993000012124, 0, 2.000000,76.000000,1.000000,6.000000,0.500000,1.000000
M7YCHjaQ,100,0, test, 8, 7, 5, 3, 4, 3, 4, 0.55, 0.65, left, 1, 0.35, 0.45, 0.55, 0.65, 1.0365751999997883, 0, 2.000000,76.000000,1.000000,6.000000,0.500000,1.000000
M7YCHjaQ,100,0, test, 8, 7, 6, 2, 1, 1, 2, 0.45, 0.35, right, 2, 0.35, 0.45, 0.55, 0.65, 2.5065369000003557, 1, 3.000000,77.000000,1.000000,6.000000,0.500000,1.000000
M7YCHjaQ,100,0, test, 8, 7, 7, 3, 2, 3, 2, 0.55, 0.45, left, 1, 0.35, 0.45, 0.55, 0.65, 0.9446338999987347, 1, 4.000000,78.000000,1.000000,6.000000,0.500000,1.000000
M7YCHjaQ,100,0, test, 8, 7, 8, 4, 2, 2, 4, 0.65, 0.45, right, 2, 0.35, 0.45, 0.55, 0.65, 0.9639313999941805, 1, 5.000000,79.000000,1.000000,6.000000,0.500000,1.000000
M7YCHjaQ,100,0, test, 8, 7, 9, 1, 4, 4, 1, 0.35, 0.65, right, 2, 0.35, 0.45, 0.55, 0.65, 1.4818925999934436, 0, 5.000000,79.000000,1.000000,6.000000,0.500000,1.000000
M7YCHjaQ,100,0, test, 8, 7, 10, 1, 2, 2, 1, 0.35, 0.45, right, 2, 0.35, 0.45, 0.55, 0.65, 1.5272783000036725, 1, 6.000000,80.000000,1.000000,6.000000,0.500000,1.000000
M7YCHjaQ,100,0, test, 8, 7, 11, 3, 2, 2, 3, 0.55, 0.45, right, 2, 0.35, 0.45, 0.55, 0.65, 1.8231920000034734, 0, 6.000000,80.000000,1.000000,6.000000,0.500000,1.000000
M7YCHjaQ,100,0, test, 8, 7, 12, 4, 2, 4, 2, 0.65, 0.45, left, 1, 0.35, 0.45, 0.55, 0.65, 0.8832747999986168, 0, 6.000000,80.000000,1.000000,6.000000,0.500000,1.000000
M7YCHjaQ,100,0, test, 8, 7, 13, 4, 1, 1, 4, 0.65, 0.35, right, 2, 0.35, 0.45, 0.55, 0.65, 1.6884610999986762, 1, 7.000000,81.000000,1.000000,6.000000,0.500000,1.000000
M7YCHjaQ,100,0, test, 8, 7, 14, 3, 1, 1, 3, 0.55, 0.35, right, 2, 0.35, 0.45, 0.55, 0.65, 1.6376088999968488, 1, 8.000000,82.000000,1.000000,6.000000,0.500000,1.000000
M7YCHjaQ,100,0, test, 8, 7, 15, 3, 4, 4, 3, 0.55, 0.65, right, 2, 0.35, 0.45, 0.55, 0.65, 0.8770008999999845, 0, 8.000000,82.000000,1.000000,6.000000,0.500000,1.000000
M7YCHjaQ,100,0, test, 8, 7, 16, 4, 1, 4, 1, 0.65, 0.35, left, 1, 0.35, 0.45, 0.55, 0.65, 0.7789895999958389, 1, 9.000000,83.000000,1.000000,6.000000,0.500000,1.000000
M7YCHjaQ,100,0, test, 8, 7, 17, 2, 3, 3, 2, 0.45, 0.55, right, 2, 0.35, 0.45, 0.55, 0.65, 2.5501917000001413, 0, 9.000000,83.000000,1.000000,6.000000,0.500000,1.000000
M7YCHjaQ,100,0, test, 8, 7, 18, 3, 4, 4, 3, 0.55, 0.65, right, 2, 0.35, 0.45, 0.55, 0.65, 0.7149281000019982, 0, 9.000000,83.000000,1.000000,6.000000,0.500000,1.000000
M7YCHjaQ,100,0, test, 8, 7, 19, 2, 4, 4, 2, 0.45, 0.65, right, 2, 0.35, 0.45, 0.55, 0.65, 1.018741300002148, 0, 9.000000,83.000000,1.000000,6.000000,0.500000,1.000000
M7YCHjaQ,100,0, test, 8, 7, 20, 3, 1, 3, 1, 0.55, 0.35, left, 1, 0.35, 0.45, 0.55, 0.65, 1.1628405999945244, 0, 9.000000,83.000000,1.000000,6.000000,0.500000,1.000000
M7YCHjaQ,100,0, test, 8, 7, 21, 4, 3, 3, 4, 0.65, 0.55, right, 2, 0.35, 0.45, 0.55, 0.65, 0.7768358000030275, 0, 9.000000,83.000000,1.000000,6.000000,0.500000,1.000000
M7YCHjaQ,100,0, test, 8, 7, 22, 1, 2, 2, 1, 0.35, 0.45, right, 2, 0.35, 0.45, 0.55, 0.65, 1.2549207999982173, 0, 9.000000,83.000000,1.000000,6.000000,0.500000,1.000000
M7YCHjaQ,100,0, test, 8, 7, 23, 4, 1, 1, 4, 0.65, 0.35, right, 2, 0.35, 0.45, 0.55, 0.65, 1.00516489999427, 1, 10.000000,84.000000,1.000000,6.000000,0.500000,1.000000
M7YCHjaQ,100,0, test, 8, 7, 24, 3, 4, 3, 4, 0.55, 0.65, left, 1, 0.35, 0.45, 0.55, 0.65, 1.3580172000001767, 0, 10.000000,84.000000,1.000000,6.000000,0.500000,1.000000
M7YCHjaQ,100,0, test, 8, 7, 25, 1, 3, 1, 3, 0.35, 0.55, left, 1, 0.35, 0.45, 0.55, 0.65, 0.7286768999983906, 0, 10.000000,84.000000,1.000000,6.000000,0.500000,1.000000
