ShaharID, group, counterbalance, block_type, block, delay_condition, trial, chosen, unchosen, offer_left_image, offer_right_image, exp_value_chosen, exp_value_unchosen, choice_location, choice_key, exp_value1, exp_value2, exp_value3, exp_value4, RT, reward, coins_per_block, coins_per_task,ITI_duration,rt_deadline,choice_feedback_duration,outcome_duration
Oo4L9fdl,100,1, practice, 1, 1, 1, 1, 4, 1, 4, 0.35, 0.65, left, 1, 0.35, 0.45, 0.55, 0.65, 1.6488222999905702, 1, 1.000000,1.000000,1.000000,6.000000,0.500000,1.000000
Oo4L9fdl,100,1, practice, 1, 1, 2, 1, 4, 4, 1, 0.35, 0.65, right, 2, 0.35, 0.45, 0.55, 0.65, 0.8186671000003116, 0, 1.000000,1.000000,1.000000,6.000000,0.500000,1.000000
Oo4L9fdl,100,1, practice, 1, 1, 3, 2, 1, 2, 1, 0.45, 0.35, left, 1, 0.35, 0.45, 0.55, 0.65, 1.0374904000054812, 1, 2.000000,2.000000,1.000000,6.000000,0.500000,1.000000
Oo4L9fdl,100,1, practice, 1, 1, 4, 2, 4, 2, 4, 0.45, 0.65, left, 1, 0.35, 0.45, 0.55, 0.65, 0.8246095000067726, 0, 2.000000,2.000000,1.000000,6.000000,0.500000,1.000000
Oo4L9fdl,100,1, practice, 1, 1, 5, 3, 4, 3, 4, 0.55, 0.65, left, 1, 0.35, 0.45, 0.55, 0.65, 1.1997508000058588, 1, 3.000000,3.000000,1.000000,6.000000,0.500000,1.000000
Oo4L9fdl,100,1, test, 1, 7, 1, 2, 4, 2, 4, 0.45, 0.65, left, 1, 0.35, 0.45, 0.55, 0.65, 1.070521200002986, 1, 1.000000,4.000000,1.000000,6.000000,0.500000,1.000000
Oo4L9fdl,100,1, test, 1, 7, 2, 3, 2, 2, 3, 0.55, 0.45, right, 2, 0.35, 0.45, 0.55, 0.65, 1.2268505999963963, 1, 2.000000,5.000000,1.000000,6.000000,0.500000,1.000000
Oo4L9fdl,100,1, test, 1, 7, 3, 1, 4, 4, 1, 0.35, 0.65, right, 2, 0.35, 0.45, 0.55, 0.65, 1.6351273999898694, 0, 2.000000,5.000000,1.000000,6.000000,0.500000,1.000000
Oo4L9fdl,100,1, test, 1, 7, 4, 3, 1, 1, 3, 0.55, 0.35, right, 2, 0.35, 0.45, 0.55, 0.65, 1.6091473999986192, 1, 3.000000,6.000000,1.000000,6.000000,0.500000,1.000000
Oo4L9fdl,100,1, test, 1, 7, 5, 3, 4, 3, 4, 0.55, 0.65, left, 1, 0.35, 0.45, 0.55, 0.65, 2.6618097000027774, 0, 3.000000,6.000000,1.000000,6.000000,0.500000,1.000000
Oo4L9fdl,100,1, test, 1, 7, 6, 4, 3, 3, 4, 0.65, 0.55, right, 2, 0.35, 0.45, 0.55, 0.65, 0.7965087999909883, 0, 3.000000,6.000000,1.000000,6.000000,0.500000,1.000000
Oo4L9fdl,100,1, test, 1, 7, 7, 2, 1, 1, 2, 0.45, 0.35, right, 2, 0.35, 0.45, 0.55, 0.65, 1.2053550999989966, 0, 3.000000,6.000000,1.000000,6.000000,0.500000,1.000000
Oo4L9fdl,100,1, test, 1, 7, 8, 4, 1, 1, 4, 0.65, 0.35, right, 2, 0.35, 0.45, 0.55, 0.65, 1.889674499994726, 1, 4.000000,7.000000,1.000000,6.000000,0.500000,1.000000
Oo4L9fdl,100,1, test, 1, 7, 9, 2, 1, 2, 1, 0.45, 0.35, left, 1, 0.35, 0.45, 0.55, 0.65, 3.29905649999273, 0, 4.000000,7.000000,1.000000,6.000000,0.500000,1.000000
Oo4L9fdl,100,1, test, 1, 7, 10, 1, 2, 2, 1, 0.35, 0.45, right, 2, 0.35, 0.45, 0.55, 0.65, 0.9129969000059646, 0, 4.000000,7.000000,1.000000,6.000000,0.500000,1.000000
Oo4L9fdl,100,1, test, 1, 7, 11, 4, 2, 4, 2, 0.65, 0.45, left, 1, 0.35, 0.45, 0.55, 0.65, 2.44625530000485, 1, 5.000000,8.000000,1.000000,6.000000,0.500000,1.000000
Oo4L9fdl,100,1, test, 1, 7, 12, 4, 2, 2, 4, 0.65, 0.45, right, 2, 0.35, 0.45, 0.55, 0.65, 2.844971300000907, 0, 5.000000,8.000000,1.000000,6.000000,0.500000,1.000000
Oo4L9fdl,100,1, test, 1, 7, 13, 2, 3, 3, 2, 0.45, 0.55, right, 2, 0.35, 0.45, 0.55, 0.65, 1.255706600000849, 1, 6.000000,9.000000,1.000000,6.000000,0.500000,1.000000
Oo4L9fdl,100,1, test, 1, 7, 14, 3, 2, 3, 2, 0.55, 0.45, left, 1, 0.35, 0.45, 0.55, 0.65, 2.946295999994618, 0, 6.000000,9.000000,1.000000,6.000000,0.500000,1.000000
Oo4L9fdl,100,1, test, 1, 7, 15, 3, 1, 3, 1, 0.55, 0.35, left, 1, 0.35, 0.45, 0.55, 0.65, 2.432924799999455, 1, 7.000000,10.000000,1.000000,6.000000,0.500000,1.000000
Oo4L9fdl,100,1, test, 1, 7, 16, 4, 1, 4, 1, 0.65, 0.35, left, 1, 0.35, 0.45, 0.55, 0.65, 1.4002873999997973, 1, 8.000000,11.000000,1.000000,6.000000,0.500000,1.000000
Oo4L9fdl,100,1, test, 1, 7, 17, 1, 2, 2, 1, 0.35, 0.45, right, 2, 0.35, 0.45, 0.55, 0.65, 0.9726702999905683, 0, 8.000000,11.000000,1.000000,6.000000,0.500000,1.000000
Oo4L9fdl,100,1, test, 1, 7, 18, 1, 2, 1, 2, 0.35, 0.45, left, 1, 0.35, 0.45, 0.55, 0.65, 2.5307962000078987, 1, 9.000000,12.000000,1.000000,6.000000,0.500000,1.000000
Oo4L9fdl,100,1, test, 1, 7, 19, 4, 2, 2, 4, 0.65, 0.45, right, 2, 0.35, 0.45, 0.55, 0.65, 1.7981768000026932, 0, 9.000000,12.000000,1.000000,6.000000,0.500000,1.000000
Oo4L9fdl,100,1, test, 1, 7, 20, 4, 2, 2, 4, 0.65, 0.45, right, 2, 0.35, 0.45, 0.55, 0.65, 1.2140625000029104, 1, 10.000000,13.000000,1.000000,6.000000,0.500000,1.000000
Oo4L9fdl,100,1, test, 1, 7, 21, 1, 2, 1, 2, 0.35, 0.45, left, 1, 0.35, 0.45, 0.55, 0.65, 1.0101676999911433, 0, 10.000000,13.000000,1.000000,6.000000,0.500000,1.000000
Oo4L9fdl,100,1, test, 1, 7, 22, 3, 4, 3, 4, 0.55, 0.65, left, 1, 0.35, 0.45, 0.55, 0.65, 0.9826323000015691, 0, 10.000000,13.000000,1.000000,6.000000,0.500000,1.000000
Oo4L9fdl,100,1, test, 1, 7, 23, 1, 4, 4, 1, 0.35, 0.65, right, 2, 0.35, 0.45, 0.55, 0.65, 0.8079990999976872, 0, 10.000000,13.000000,1.000000,6.000000,0.500000,1.000000
Oo4L9fdl,100,1, test, 1, 7, 24, 4, 3, 4, 3, 0.65, 0.55, left, 1, 0.35, 0.45, 0.55, 0.65, 1.0799826000002213, 0, 10.000000,13.000000,1.000000,6.000000,0.500000,1.000000
Oo4L9fdl,100,1, test, 1, 7, 25, 3, 1, 3, 1, 0.55, 0.35, left, 1, 0.35, 0.45, 0.55, 0.65, 1.473101299998234, 1, 11.000000,14.000000,1.000000,6.000000,0.500000,1.000000
Oo4L9fdl,100,1, test, 2, 1, 1, 1, 2, 2, 1, 0.35, 0.45, right, 2, 0.35, 0.45, 0.55, 0.65, 1.5925900000002002, 0, 0.000000,14.000000,1.000000,6.000000,0.500000,1.000000
Oo4L9fdl,100,1, test, 2, 1, 2, 2, 1, 2, 1, 0.45, 0.35, left, 1, 0.35, 0.45, 0.55, 0.65, 1.1164816999953473, 0, 0.000000,14.000000,1.000000,6.000000,0.500000,1.000000
Oo4L9fdl,100,1, test, 2, 1, 3, 3, 1, 3, 1, 0.55, 0.35, left, 1, 0.35, 0.45, 0.55, 0.65, 2.1605580000032205, 1, 1.000000,15.000000,1.000000,6.000000,0.500000,1.000000
Oo4L9fdl,100,1, test, 2, 1, 4, 1, 3, 1, 3, 0.35, 0.55, left, 1, 0.35, 0.45, 0.55, 0.65, 2.679231099988101, 0, 1.000000,15.000000,1.000000,6.000000,0.500000,1.000000
Oo4L9fdl,100,1, test, 2, 1, 5, 3, 1, 1, 3, 0.55, 0.35, right, 2, 0.35, 0.45, 0.55, 0.65, 0.680494300002465, 1, 2.000000,16.000000,1.000000,6.000000,0.500000,1.000000
Oo4L9fdl,100,1, test, 2, 1, 6, 4, 2, 2, 4, 0.65, 0.45, right, 2, 0.35, 0.45, 0.55, 0.65, 1.0125279999920167, 1, 3.000000,17.000000,1.000000,6.000000,0.500000,1.000000
Oo4L9fdl,100,1, test, 2, 1, 7, 4, 3, 4, 3, 0.65, 0.55, left, 1, 0.35, 0.45, 0.55, 0.65, 1.9490839000063716, 1, 4.000000,18.000000,1.000000,6.000000,0.500000,1.000000
Oo4L9fdl,100,1, test, 2, 1, 8, 4, 2, 2, 4, 0.65, 0.45, right, 2, 0.35, 0.45, 0.55, 0.65, 0.8998233000020264, 1, 5.000000,19.000000,1.000000,6.000000,0.500000,1.000000
Oo4L9fdl,100,1, test, 2, 1, 9, 1, 2, 1, 2, 0.35, 0.45, left, 1, 0.35, 0.45, 0.55, 0.65, 2.4157288999995217, 0, 5.000000,19.000000,1.000000,6.000000,0.500000,1.000000
Oo4L9fdl,100,1, test, 2, 1, 10, 4, 1, 4, 1, 0.65, 0.35, left, 1, 0.35, 0.45, 0.55, 0.65, 0.9038875000114786, 0, 5.000000,19.000000,1.000000,6.000000,0.500000,1.000000
Oo4L9fdl,100,1, test, 2, 1, 11, 4, 2, 2, 4, 0.65, 0.45, right, 2, 0.35, 0.45, 0.55, 0.65, 0.7403637999959756, 1, 6.000000,20.000000,1.000000,6.000000,0.500000,1.000000
Oo4L9fdl,100,1, test, 2, 1, 12, 4, 2, 2, 4, 0.65, 0.45, right, 2, 0.35, 0.45, 0.55, 0.65, 0.7877947999950266, 1, 7.000000,21.000000,1.000000,6.000000,0.500000,1.000000
Oo4L9fdl,100,1, test, 2, 1, 13, 3, 2, 3, 2, 0.55, 0.45, left, 1, 0.35, 0.45, 0.55, 0.65, 0.7009092000080273, 0, 7.000000,21.000000,1.000000,6.000000,0.500000,1.000000
Oo4L9fdl,100,1, test, 2, 1, 14, 4, 1, 1, 4, 0.65, 0.35, right, 2, 0.35, 0.45, 0.55, 0.65, 0.6815817999886349, 0, 7.000000,21.000000,1.000000,6.000000,0.500000,1.000000
Oo4L9fdl,100,1, test, 2, 1, 15, 3, 2, 2, 3, 0.55, 0.45, right, 2, 0.35, 0.45, 0.55, 0.65, 0.7150284999952419, 1, 8.000000,22.000000,1.000000,6.000000,0.500000,1.000000
Oo4L9fdl,100,1, test, 2, 1, 16, 3, 2, 3, 2, 0.55, 0.45, left, 1, 0.35, 0.45, 0.55, 0.65, 0.5468639999890001, 1, 9.000000,23.000000,1.000000,6.000000,0.500000,1.000000
Oo4L9fdl,100,1, test, 2, 1, 17, 4, 1, 1, 4, 0.65, 0.35, right, 2, 0.35, 0.45, 0.55, 0.65, 0.6017796999949496, 0, 9.000000,23.000000,1.000000,6.000000,0.500000,1.000000
Oo4L9fdl,100,1, test, 2, 1, 18, 3, 2, 2, 3, 0.55, 0.45, right, 2, 0.35, 0.45, 0.55, 0.65, 0.7617127999983495, 0, 9.000000,23.000000,1.000000,6.000000,0.500000,1.000000
Oo4L9fdl,100,1, test, 2, 1, 19, 3, 4, 4, 3, 0.55, 0.65, right, 2, 0.35, 0.45, 0.55, 0.65, 0.7042712999973446, 1, 10.000000,24.000000,1.000000,6.000000,0.500000,1.000000
Oo4L9fdl,100,1, test, 2, 1, 20, 4, 1, 4, 1, 0.65, 0.35, left, 1, 0.35, 0.45, 0.55, 0.65, 0.5848732000013115, 0, 10.000000,24.000000,1.000000,6.000000,0.500000,1.000000
Oo4L9fdl,100,1, test, 2, 1, 21, 4, 1, 1, 4, 0.65, 0.35, right, 2, 0.35, 0.45, 0.55, 0.65, 0.6342265999992378, 1, 11.000000,25.000000,1.000000,6.000000,0.500000,1.000000
Oo4L9fdl,100,1, test, 2, 1, 22, 3, 2, 3, 2, 0.55, 0.45, left, 1, 0.35, 0.45, 0.55, 0.65, 1.0526847000000998, 0, 11.000000,25.000000,1.000000,6.000000,0.500000,1.000000
Oo4L9fdl,100,1, test, 2, 1, 23, 2, 1, 1, 2, 0.45, 0.35, right, 2, 0.35, 0.45, 0.55, 0.65, 1.6190810000116471, 1, 12.000000,26.000000,1.000000,6.000000,0.500000,1.000000
Oo4L9fdl,100,1, test, 2, 1, 24, 4, 1, 4, 1, 0.65, 0.35, left, 1, 0.35, 0.45, 0.55, 0.65, 0.975027799999225, 1, 13.000000,27.000000,1.000000,6.000000,0.500000,1.000000
Oo4L9fdl,100,1, test, 2, 1, 25, 4, 1, 1, 4, 0.65, 0.35, right, 2, 0.35, 0.45, 0.55, 0.65, 0.588920499998494, 1, 14.000000,28.000000,1.000000,6.000000,0.500000,1.000000
Oo4L9fdl,100,1, test, 3, 7, 1, 3, 2, 2, 3, 0.55, 0.45, right, 2, 0.35, 0.45, 0.55, 0.65, 0.8398811999941245, 0, 0.000000,28.000000,1.000000,6.000000,0.500000,1.000000
Oo4L9fdl,100,1, test, 3, 7, 2, 1, 2, 1, 2, 0.35, 0.45, left, 1, 0.35, 0.45, 0.55, 0.65, 1.4387349000026006, 0, 0.000000,28.000000,1.000000,6.000000,0.500000,1.000000
Oo4L9fdl,100,1, test, 3, 7, 3, 1, 3, 3, 1, 0.35, 0.55, right, 2, 0.35, 0.45, 0.55, 0.65, 1.466193200001726, 1, 1.000000,29.000000,1.000000,6.000000,0.500000,1.000000
Oo4L9fdl,100,1, test, 3, 7, 4, 4, 1, 4, 1, 0.65, 0.35, left, 1, 0.35, 0.45, 0.55, 0.65, 1.5723154000006616, 0, 1.000000,29.000000,1.000000,6.000000,0.500000,1.000000
Oo4L9fdl,100,1, test, 3, 7, 5, 1, 4, 1, 4, 0.35, 0.65, left, 1, 0.35, 0.45, 0.55, 0.65, 0.8942523000005167, 0, 1.000000,29.000000,1.000000,6.000000,0.500000,1.000000
Oo4L9fdl,100,1, test, 3, 7, 6, 4, 2, 4, 2, 0.65, 0.45, left, 1, 0.35, 0.45, 0.55, 0.65, 2.491593800004921, 1, 2.000000,30.000000,1.000000,6.000000,0.500000,1.000000
Oo4L9fdl,100,1, test, 3, 7, 7, 2, 1, 1, 2, 0.45, 0.35, right, 2, 0.35, 0.45, 0.55, 0.65, 2.50094359999639, 0, 2.000000,30.000000,1.000000,6.000000,0.500000,1.000000
Oo4L9fdl,100,1, test, 3, 7, 8, 1, 3, 1, 3, 0.35, 0.55, left, 1, 0.35, 0.45, 0.55, 0.65, 1.4455669000017224, 1, 3.000000,31.000000,1.000000,6.000000,0.500000,1.000000
Oo4L9fdl,100,1, test, 3, 7, 9, 4, 2, 2, 4, 0.65, 0.45, right, 2, 0.35, 0.45, 0.55, 0.65, 1.5640784999995958, 1, 4.000000,32.000000,1.000000,6.000000,0.500000,1.000000
Oo4L9fdl,100,1, test, 3, 7, 10, 4, 2, 2, 4, 0.65, 0.45, right, 2, 0.35, 0.45, 0.55, 0.65, 1.214158300004783, 0, 4.000000,32.000000,1.000000,6.000000,0.500000,1.000000
Oo4L9fdl,100,1, test, 3, 7, 11, 1, 2, 1, 2, 0.35, 0.45, left, 1, 0.35, 0.45, 0.55, 0.65, 0.00010590000601951033, 1, 5.000000,33.000000,1.000000,6.000000,0.500000,1.000000
Oo4L9fdl,100,1, test, 3, 7, 12, 1, 2, 2, 1, 0.35, 0.45, right, 2, 0.35, 0.45, 0.55, 0.65, 1.8147073000000091, 0, 5.000000,33.000000,1.000000,6.000000,0.500000,1.000000
Oo4L9fdl,100,1, test, 3, 7, 13, 1, 2, 2, 1, 0.35, 0.45, right, 2, 0.35, 0.45, 0.55, 0.65, 0.594775200006552, 1, 6.000000,34.000000,1.000000,6.000000,0.500000,1.000000
Oo4L9fdl,100,1, test, 3, 7, 14, 1, 3, 1, 3, 0.35, 0.55, left, 1, 0.35, 0.45, 0.55, 0.65, 1.3318085999926552, 0, 6.000000,34.000000,1.000000,6.000000,0.500000,1.000000
Oo4L9fdl,100,1, test, 3, 7, 15, 1, 3, 3, 1, 0.35, 0.55, right, 2, 0.35, 0.45, 0.55, 0.65, 0.3660825999977533, 0, 6.000000,34.000000,1.000000,6.000000,0.500000,1.000000
Oo4L9fdl,100,1, test, 3, 7, 16, 3, 2, 3, 2, 0.55, 0.45, left, 1, 0.35, 0.45, 0.55, 0.65, 1.06793619999371, 0, 6.000000,34.000000,1.000000,6.000000,0.500000,1.000000
Oo4L9fdl,100,1, test, 3, 7, 17, 4, 1, 1, 4, 0.65, 0.35, right, 2, 0.35, 0.45, 0.55, 0.65, 0.0001294999965466559, 0, 6.000000,34.000000,1.000000,6.000000,0.500000,1.000000
Oo4L9fdl,100,1, test, 3, 7, 18, 1, 4, 1, 4, 0.35, 0.65, left, 1, 0.35, 0.45, 0.55, 0.65, 0.9012788999971235, 1, 7.000000,35.000000,1.000000,6.000000,0.500000,1.000000
Oo4L9fdl,100,1, test, 3, 7, 19, 3, 4, 3, 4, 0.55, 0.65, left, 1, 0.35, 0.45, 0.55, 0.65, 1.3378508999885526, 0, 7.000000,35.000000,1.000000,6.000000,0.500000,1.000000
Oo4L9fdl,100,1, test, 3, 7, 20, 3, 1, 1, 3, 0.55, 0.35, right, 2, 0.35, 0.45, 0.55, 0.65, 0.00010859999747481197, 0, 7.000000,35.000000,1.000000,6.000000,0.500000,1.000000
Oo4L9fdl,100,1, test, 3, 7, 21, 4, 3, 3, 4, 0.65, 0.55, right, 2, 0.35, 0.45, 0.55, 0.65, 0.7377350999886403, 1, 8.000000,36.000000,1.000000,6.000000,0.500000,1.000000
Oo4L9fdl,100,1, test, 3, 7, 22, 4, 3, 3, 4, 0.65, 0.55, right, 2, 0.35, 0.45, 0.55, 0.65, 0.8484408999938751, 1, 9.000000,37.000000,1.000000,6.000000,0.500000,1.000000
Oo4L9fdl,100,1, test, 3, 7, 23, 4, 3, 4, 3, 0.65, 0.55, left, 1, 0.35, 0.45, 0.55, 0.65, 0.8950469999981578, 1, 10.000000,38.000000,1.000000,6.000000,0.500000,1.000000
Oo4L9fdl,100,1, test, 3, 7, 24, 4, 1, 1, 4, 0.65, 0.35, right, 2, 0.35, 0.45, 0.55, 0.65, 1.1324357999983476, 0, 10.000000,38.000000,1.000000,6.000000,0.500000,1.000000
Oo4L9fdl,100,1, test, 3, 7, 25, 4, 1, 1, 4, 0.65, 0.35, right, 2, 0.35, 0.45, 0.55, 0.65, 0.8116290000034496, 1, 11.000000,39.000000,1.000000,6.000000,0.500000,1.000000
Oo4L9fdl,100,1, test, 4, 1, 1, 3, 1, 1, 3, 0.55, 0.35, right, 2, 0.35, 0.45, 0.55, 0.65, 0.7662177000020165, 1, 1.000000,40.000000,1.000000,6.000000,0.500000,1.000000
Oo4L9fdl,100,1, test, 4, 1, 2, 1, 2, 2, 1, 0.35, 0.45, right, 2, 0.35, 0.45, 0.55, 0.65, 0.8883643000008306, 0, 1.000000,40.000000,1.000000,6.000000,0.500000,1.000000
Oo4L9fdl,100,1, test, 4, 1, 3, 3, 4, 4, 3, 0.55, 0.65, right, 2, 0.35, 0.45, 0.55, 0.65, 1.9095242000039434, 1, 2.000000,41.000000,1.000000,6.000000,0.500000,1.000000
Oo4L9fdl,100,1, test, 4, 1, 4, 3, 2, 3, 2, 0.55, 0.45, left, 1, 0.35, 0.45, 0.55, 0.65, 0.82626679999521, 1, 3.000000,42.000000,1.000000,6.000000,0.500000,1.000000
Oo4L9fdl,100,1, test, 4, 1, 5, 3, 4, 4, 3, 0.55, 0.65, right, 2, 0.35, 0.45, 0.55, 0.65, 0.586322500006645, 0, 3.000000,42.000000,1.000000,6.000000,0.500000,1.000000
Oo4L9fdl,100,1, test, 4, 1, 6, 4, 2, 2, 4, 0.65, 0.45, right, 2, 0.35, 0.45, 0.55, 0.65, 0.7715017000009539, 1, 4.000000,43.000000,1.000000,6.000000,0.500000,1.000000
Oo4L9fdl,100,1, test, 4, 1, 7, 4, 3, 3, 4, 0.65, 0.55, right, 2, 0.35, 0.45, 0.55, 0.65, 1.829505900008371, 1, 5.000000,44.000000,1.000000,6.000000,0.500000,1.000000
Oo4L9fdl,100,1, test, 4, 1, 8, 4, 2, 2, 4, 0.65, 0.45, right, 2, 0.35, 0.45, 0.55, 0.65, 0.7727244999987306, 1, 6.000000,45.000000,1.000000,6.000000,0.500000,1.000000
Oo4L9fdl,100,1, test, 4, 1, 9, 4, 1, 4, 1, 0.65, 0.35, left, 1, 0.35, 0.45, 0.55, 0.65, 0.9429284000070766, 1, 7.000000,46.000000,1.000000,6.000000,0.500000,1.000000
Oo4L9fdl,100,1, test, 4, 1, 10, 2, 1, 1, 2, 0.45, 0.35, right, 2, 0.35, 0.45, 0.55, 0.65, 1.1180812999955378, 1, 8.000000,47.000000,1.000000,6.000000,0.500000,1.000000
Oo4L9fdl,100,1, test, 4, 1, 11, 4, 2, 2, 4, 0.65, 0.45, right, 2, 0.35, 0.45, 0.55, 0.65, 0.5420931999979075, 0, 8.000000,47.000000,1.000000,6.000000,0.500000,1.000000
Oo4L9fdl,100,1, test, 4, 1, 12, 4, 1, 1, 4, 0.65, 0.35, right, 2, 0.35, 0.45, 0.55, 0.65, 0.5055498000001535, 0, 8.000000,47.000000,1.000000,6.000000,0.500000,1.000000
Oo4L9fdl,100,1, test, 4, 1, 13, 2, 1, 2, 1, 0.45, 0.35, left, 1, 0.35, 0.45, 0.55, 0.65, 1.3662556000053883, 0, 8.000000,47.000000,1.000000,6.000000,0.500000,1.000000
Oo4L9fdl,100,1, test, 4, 1, 14, 4, 1, 1, 4, 0.65, 0.35, right, 2, 0.35, 0.45, 0.55, 0.65, 0.5681744000030449, 1, 9.000000,48.000000,1.000000,6.000000,0.500000,1.000000
Oo4L9fdl,100,1, test, 4, 1, 15, 1, 3, 3, 1, 0.35, 0.55, right, 2, 0.35, 0.45, 0.55, 0.65, 0.82210259999556, 0, 9.000000,48.000000,1.000000,6.000000,0.500000,1.000000
Oo4L9fdl,100,1, test, 4, 1, 16, 3, 1, 1, 3, 0.55, 0.35, right, 2, 0.35, 0.45, 0.55, 0.65, 0.5020301999902586, 1, 10.000000,49.000000,1.000000,6.000000,0.500000,1.000000
Oo4L9fdl,100,1, test, 4, 1, 17, 1, 2, 1, 2, 0.35, 0.45, left, 1, 0.35, 0.45, 0.55, 0.65, 1.5748362000013003, 1, 11.000000,50.000000,1.000000,6.000000,0.500000,1.000000
Oo4L9fdl,100,1, test, 4, 1, 18, 4, 3, 4, 3, 0.65, 0.55, left, 1, 0.35, 0.45, 0.55, 0.65, 1.060017499999958, 0, 11.000000,50.000000,1.000000,6.000000,0.500000,1.000000
Oo4L9fdl,100,1, test, 4, 1, 19, 3, 1, 1, 3, 0.55, 0.35, right, 2, 0.35, 0.45, 0.55, 0.65, 1.286757599998964, 0, 11.000000,50.000000,1.000000,6.000000,0.500000,1.000000
Oo4L9fdl,100,1, test, 4, 1, 20, 3, 2, 3, 2, 0.55, 0.45, left, 1, 0.35, 0.45, 0.55, 0.65, 1.4120641999907093, 1, 12.000000,51.000000,1.000000,6.000000,0.500000,1.000000
Oo4L9fdl,100,1, test, 4, 1, 21, 4, 1, 4, 1, 0.65, 0.35, left, 1, 0.35, 0.45, 0.55, 0.65, 0.8408627000026172, 0, 12.000000,51.000000,1.000000,6.000000,0.500000,1.000000
Oo4L9fdl,100,1, test, 4, 1, 22, 4, 3, 3, 4, 0.65, 0.55, right, 2, 0.35, 0.45, 0.55, 0.65, 0.5479282000014791, 1, 13.000000,52.000000,1.000000,6.000000,0.500000,1.000000
Oo4L9fdl,100,1, test, 4, 1, 23, 1, 2, 1, 2, 0.35, 0.45, left, 1, 0.35, 0.45, 0.55, 0.65, 1.1413024999928894, 0, 13.000000,52.000000,1.000000,6.000000,0.500000,1.000000
Oo4L9fdl,100,1, test, 4, 1, 24, 3, 1, 3, 1, 0.55, 0.35, left, 1, 0.35, 0.45, 0.55, 0.65, 0.8100737000058871, 0, 13.000000,52.000000,1.000000,6.000000,0.500000,1.000000
Oo4L9fdl,100,1, test, 4, 1, 25, 4, 2, 4, 2, 0.65, 0.45, left, 1, 0.35, 0.45, 0.55, 0.65, 0.7267140000039944, 0, 13.000000,52.000000,1.000000,6.000000,0.500000,1.000000
Oo4L9fdl,100,1, test, 5, 7, 1, 1, 2, 1, 2, 0.35, 0.45, left, 1, 0.35, 0.45, 0.55, 0.65, 0.8467796000040835, 0, 0.000000,52.000000,1.000000,6.000000,0.500000,1.000000
Oo4L9fdl,100,1, test, 5, 7, 2, 2, 3, 3, 2, 0.45, 0.55, right, 2, 0.35, 0.45, 0.55, 0.65, 1.4573243000049843, 1, 1.000000,53.000000,1.000000,6.000000,0.500000,1.000000
Oo4L9fdl,100,1, test, 5, 7, 3, 4, 3, 3, 4, 0.65, 0.55, right, 2, 0.35, 0.45, 0.55, 0.65, 1.1599325999995926, 0, 1.000000,53.000000,1.000000,6.000000,0.500000,1.000000
Oo4L9fdl,100,1, test, 5, 7, 4, 1, 4, 1, 4, 0.35, 0.65, left, 1, 0.35, 0.45, 0.55, 0.65, 0.9824170999927446, 1, 2.000000,54.000000,1.000000,6.000000,0.500000,1.000000
Oo4L9fdl,100,1, test, 5, 7, 5, 1, 2, 1, 2, 0.35, 0.45, left, 1, 0.35, 0.45, 0.55, 0.65, 1.3317900999973062, 0, 2.000000,54.000000,1.000000,6.000000,0.500000,1.000000
Oo4L9fdl,100,1, test, 5, 7, 6, 2, 1, 1, 2, 0.45, 0.35, right, 2, 0.35, 0.45, 0.55, 0.65, 0.45517580000159796, 0, 2.000000,54.000000,1.000000,6.000000,0.500000,1.000000
Oo4L9fdl,100,1, test, 5, 7, 7, 2, 1, 1, 2, 0.45, 0.35, right, 2, 0.35, 0.45, 0.55, 0.65, 1.0738465000031283, 0, 2.000000,54.000000,1.000000,6.000000,0.500000,1.000000
Oo4L9fdl,100,1, test, 5, 7, 8, 1, 4, 4, 1, 0.35, 0.65, right, 2, 0.35, 0.45, 0.55, 0.65, 1.4158336999971652, 0, 2.000000,54.000000,1.000000,6.000000,0.500000,1.000000
Oo4L9fdl,100,1, test, 5, 7, 9, 4, 1, 4, 1, 0.65, 0.35, left, 1, 0.35, 0.45, 0.55, 0.65, 0.4343837999913376, 1, 3.000000,55.000000,1.000000,6.000000,0.500000,1.000000
Oo4L9fdl,100,1, test, 5, 7, 10, 2, 1, 2, 1, 0.45, 0.35, left, 1, 0.35, 0.45, 0.55, 0.65, 1.9829316999966977, 0, 3.000000,55.000000,1.000000,6.000000,0.500000,1.000000
Oo4L9fdl,100,1, test, 5, 7, 11, 3, 2, 2, 3, 0.55, 0.45, right, 2, 0.35, 0.45, 0.55, 0.65, 1.172268799986341, 0, 3.000000,55.000000,1.000000,6.000000,0.500000,1.000000
Oo4L9fdl,100,1, test, 5, 7, 12, 1, 2, 1, 2, 0.35, 0.45, left, 1, 0.35, 0.45, 0.55, 0.65, 2.546517999988282, 1, 4.000000,56.000000,1.000000,6.000000,0.500000,1.000000
Oo4L9fdl,100,1, test, 5, 7, 13, 4, 3, 3, 4, 0.65, 0.55, right, 2, 0.35, 0.45, 0.55, 0.65, 0.6609914000000572, 1, 5.000000,57.000000,1.000000,6.000000,0.500000,1.000000
Oo4L9fdl,100,1, test, 5, 7, 14, 1, 3, 1, 3, 0.35, 0.55, left, 1, 0.35, 0.45, 0.55, 0.65, 1.027697800003807, 0, 5.000000,57.000000,1.000000,6.000000,0.500000,1.000000
Oo4L9fdl,100,1, test, 5, 7, 15, 4, 1, 4, 1, 0.65, 0.35, left, 1, 0.35, 0.45, 0.55, 0.65, 0.4315893999882974, 0, 5.000000,57.000000,1.000000,6.000000,0.500000,1.000000
Oo4L9fdl,100,1, test, 5, 7, 16, 4, 2, 4, 2, 0.65, 0.45, left, 1, 0.35, 0.45, 0.55, 0.65, 0.7188932999997633, 1, 6.000000,58.000000,1.000000,6.000000,0.500000,1.000000
Oo4L9fdl,100,1, test, 5, 7, 17, 4, 3, 3, 4, 0.65, 0.55, right, 2, 0.35, 0.45, 0.55, 0.65, 0.48698719999811146, 0, 6.000000,58.000000,1.000000,6.000000,0.500000,1.000000
Oo4L9fdl,100,1, test, 5, 7, 18, 1, 3, 3, 1, 0.35, 0.55, right, 2, 0.35, 0.45, 0.55, 0.65, 1.7282546000060393, 0, 6.000000,58.000000,1.000000,6.000000,0.500000,1.000000
Oo4L9fdl,100,1, test, 5, 7, 19, 1, 3, 3, 1, 0.35, 0.55, right, 2, 0.35, 0.45, 0.55, 0.65, 1.888273799995659, 0, 6.000000,58.000000,1.000000,6.000000,0.500000,1.000000
Oo4L9fdl,100,1, test, 5, 7, 20, 2, 1, 1, 2, 0.45, 0.35, right, 2, 0.35, 0.45, 0.55, 0.65, 1.4134933000023011, 1, 7.000000,59.000000,1.000000,6.000000,0.500000,1.000000
Oo4L9fdl,100,1, test, 5, 7, 21, 2, 3, 3, 2, 0.45, 0.55, right, 2, 0.35, 0.45, 0.55, 0.65, 1.2812701999937417, 0, 7.000000,59.000000,1.000000,6.000000,0.500000,1.000000
Oo4L9fdl,100,1, test, 5, 7, 22, 3, 1, 1, 3, 0.55, 0.35, right, 2, 0.35, 0.45, 0.55, 0.65, 1.5796648000105051, 1, 8.000000,60.000000,1.000000,6.000000,0.500000,1.000000
Oo4L9fdl,100,1, test, 5, 7, 23, 4, 2, 4, 2, 0.65, 0.45, left, 1, 0.35, 0.45, 0.55, 0.65, 0.32921720000740606, 0, 8.000000,60.000000,1.000000,6.000000,0.500000,1.000000
Oo4L9fdl,100,1, test, 5, 7, 24, 4, 3, 4, 3, 0.65, 0.55, left, 1, 0.35, 0.45, 0.55, 0.65, 0.52918930001033, 1, 9.000000,61.000000,1.000000,6.000000,0.500000,1.000000
Oo4L9fdl,100,1, test, 5, 7, 25, 4, 1, 4, 1, 0.65, 0.35, left, 1, 0.35, 0.45, 0.55, 0.65, 0.0012008000048808753, 0, 9.000000,61.000000,1.000000,6.000000,0.500000,1.000000
Oo4L9fdl,100,1, test, 6, 1, 1, 1, 4, 1, 4, 0.35, 0.65, left, 1, 0.35, 0.45, 0.55, 0.65, 0.9305711000051815, 1, 1.000000,62.000000,1.000000,6.000000,0.500000,1.000000
Oo4L9fdl,100,1, test, 6, 1, 2, 3, 2, 3, 2, 0.55, 0.45, left, 1, 0.35, 0.45, 0.55, 0.65, 0.6213649999990594, 0, 1.000000,62.000000,1.000000,6.000000,0.500000,1.000000
Oo4L9fdl,100,1, test, 6, 1, 3, 2, 3, 3, 2, 0.45, 0.55, right, 2, 0.35, 0.45, 0.55, 0.65, 1.0807279000000563, 0, 1.000000,62.000000,1.000000,6.000000,0.500000,1.000000
Oo4L9fdl,100,1, test, 6, 1, 4, 3, 1, 1, 3, 0.55, 0.35, right, 2, 0.35, 0.45, 0.55, 0.65, 0.9811790000094334, 0, 1.000000,62.000000,1.000000,6.000000,0.500000,1.000000
Oo4L9fdl,100,1, test, 6, 1, 5, 2, 4, 2, 4, 0.45, 0.65, left, 1, 0.35, 0.45, 0.55, 0.65, 1.817909299992607, 1, 2.000000,63.000000,1.000000,6.000000,0.500000,1.000000
Oo4L9fdl,100,1, test, 6, 1, 6, 3, 4, 3, 4, 0.55, 0.65, left, 1, 0.35, 0.45, 0.55, 0.65, 1.3212779999885242, 0, 2.000000,63.000000,1.000000,6.000000,0.500000,1.000000
Oo4L9fdl,100,1, test, 6, 1, 7, 2, 3, 2, 3, 0.45, 0.55, left, 1, 0.35, 0.45, 0.55, 0.65, 0.856634000010672, 1, 3.000000,64.000000,1.000000,6.000000,0.500000,1.000000
Oo4L9fdl,100,1, test, 6, 1, 8, 1, 2, 2, 1, 0.35, 0.45, right, 2, 0.35, 0.45, 0.55, 0.65, 0.5591875000100117, 1, 4.000000,65.000000,1.000000,6.000000,0.500000,1.000000
Oo4L9fdl,100,1, test, 6, 1, 9, 1, 2, 2, 1, 0.35, 0.45, right, 2, 0.35, 0.45, 0.55, 0.65, 1.201286399998935, 0, 4.000000,65.000000,1.000000,6.000000,0.500000,1.000000
Oo4L9fdl,100,1, test, 6, 1, 10, 2, 3, 3, 2, 0.45, 0.55, right, 2, 0.35, 0.45, 0.55, 0.65, 1.3530638000083854, 1, 5.000000,66.000000,1.000000,6.000000,0.500000,1.000000
Oo4L9fdl,100,1, test, 6, 1, 11, 4, 3, 4, 3, 0.65, 0.55, left, 1, 0.35, 0.45, 0.55, 0.65, 1.1471327000035672, 1, 6.000000,67.000000,1.000000,6.000000,0.500000,1.000000
Oo4L9fdl,100,1, test, 6, 1, 12, 1, 4, 4, 1, 0.35, 0.65, right, 2, 0.35, 0.45, 0.55, 0.65, 1.109250500012422, 0, 6.000000,67.000000,1.000000,6.000000,0.500000,1.000000
Oo4L9fdl,100,1, test, 6, 1, 13, 2, 4, 2, 4, 0.45, 0.65, left, 1, 0.35, 0.45, 0.55, 0.65, 1.6892079999961425, 0, 6.000000,67.000000,1.000000,6.000000,0.500000,1.000000
Oo4L9fdl,100,1, test, 6, 1, 14, 4, 3, 4, 3, 0.65, 0.55, left, 1, 0.35, 0.45, 0.55, 0.65, 0.45430620000115596, 1, 7.000000,68.000000,1.000000,6.000000,0.500000,1.000000
Oo4L9fdl,100,1, test, 6, 1, 15, 4, 3, 3, 4, 0.65, 0.55, right, 2, 0.35, 0.45, 0.55, 0.65, 0.7564094999979716, 1, 8.000000,69.000000,1.000000,6.000000,0.500000,1.000000
Oo4L9fdl,100,1, test, 6, 1, 16, 1, 2, 2, 1, 0.35, 0.45, right, 2, 0.35, 0.45, 0.55, 0.65, 0.6063751000037882, 1, 9.000000,70.000000,1.000000,6.000000,0.500000,1.000000
Oo4L9fdl,100,1, test, 6, 1, 17, 2, 3, 3, 2, 0.45, 0.55, right, 2, 0.35, 0.45, 0.55, 0.65, 1.5702326000027824, 0, 9.000000,70.000000,1.000000,6.000000,0.500000,1.000000
Oo4L9fdl,100,1, test, 6, 1, 18, 2, 3, 2, 3, 0.45, 0.55, left, 1, 0.35, 0.45, 0.55, 0.65, 0.512300199989113, 0, 9.000000,70.000000,1.000000,6.000000,0.500000,1.000000
Oo4L9fdl,100,1, test, 6, 1, 19, 1, 4, 4, 1, 0.35, 0.65, right, 2, 0.35, 0.45, 0.55, 0.65, 0.6124375999934273, 0, 9.000000,70.000000,1.000000,6.000000,0.500000,1.000000
Oo4L9fdl,100,1, test, 6, 1, 20, 1, 3, 3, 1, 0.35, 0.55, right, 2, 0.35, 0.45, 0.55, 0.65, 0.760509900006582, 1, 10.000000,71.000000,1.000000,6.000000,0.500000,1.000000
Oo4L9fdl,100,1, test, 6, 1, 21, 2, 4, 4, 2, 0.45, 0.65, right, 2, 0.35, 0.45, 0.55, 0.65, 1.710305899992818, 0, 10.000000,71.000000,1.000000,6.000000,0.500000,1.000000
Oo4L9fdl,100,1, test, 6, 1, 22, 4, 3, 4, 3, 0.65, 0.55, left, 1, 0.35, 0.45, 0.55, 0.65, 1.295027599990135, 0, 10.000000,71.000000,1.000000,6.000000,0.500000,1.000000
Oo4L9fdl,100,1, test, 6, 1, 23, 1, 2, 2, 1, 0.35, 0.45, right, 2, 0.35, 0.45, 0.55, 0.65, 0.7324752000131411, 0, 10.000000,71.000000,1.000000,6.000000,0.500000,1.000000
Oo4L9fdl,100,1, test, 6, 1, 24, 2, 3, 2, 3, 0.45, 0.55, left, 1, 0.35, 0.45, 0.55, 0.65, 0.7385723000043072, 0, 10.000000,71.000000,1.000000,6.000000,0.500000,1.000000
Oo4L9fdl,100,1, test, 6, 1, 25, 1, 4, 1, 4, 0.35, 0.65, left, 1, 0.35, 0.45, 0.55, 0.65, 0.72962459998962, 1, 11.000000,72.000000,1.000000,6.000000,0.500000,1.000000
Oo4L9fdl,100,1, test, 7, 7, 1, 4, 2, 2, 4, 0.65, 0.45, right, 2, 0.35, 0.45, 0.55, 0.65, 0.7854823999950895, 0, 0.000000,72.000000,1.000000,6.000000,0.500000,1.000000
Oo4L9fdl,100,1, test, 7, 7, 2, 1, 4, 4, 1, 0.35, 0.65, right, 2, 0.35, 0.45, 0.55, 0.65, 1.1789695000043139, 0, 0.000000,72.000000,1.000000,6.000000,0.500000,1.000000
Oo4L9fdl,100,1, test, 7, 7, 3, 3, 2, 2, 3, 0.55, 0.45, right, 2, 0.35, 0.45, 0.55, 0.65, 1.2609129000047687, 1, 1.000000,73.000000,1.000000,6.000000,0.500000,1.000000
Oo4L9fdl,100,1, test, 7, 7, 4, 2, 4, 4, 2, 0.45, 0.65, right, 2, 0.35, 0.45, 0.55, 0.65, 1.9795333999936702, 0, 1.000000,73.000000,1.000000,6.000000,0.500000,1.000000
Oo4L9fdl,100,1, test, 7, 7, 5, 3, 2, 3, 2, 0.55, 0.45, left, 1, 0.35, 0.45, 0.55, 0.65, 1.0088709999981802, 1, 2.000000,74.000000,1.000000,6.000000,0.500000,1.000000
Oo4L9fdl,100,1, test, 7, 7, 6, 2, 1, 2, 1, 0.45, 0.35, left, 1, 0.35, 0.45, 0.55, 0.65, 2.1372604000061983, 1, 3.000000,75.000000,1.000000,6.000000,0.500000,1.000000
Oo4L9fdl,100,1, test, 7, 7, 7, 2, 4, 2, 4, 0.45, 0.65, left, 1, 0.35, 0.45, 0.55, 0.65, 2.2727856999990763, 1, 4.000000,76.000000,1.000000,6.000000,0.500000,1.000000
Oo4L9fdl,100,1, test, 7, 7, 8, 2, 1, 1, 2, 0.45, 0.35, right, 2, 0.35, 0.45, 0.55, 0.65, 0.9267961000005016, 1, 5.000000,77.000000,1.000000,6.000000,0.500000,1.000000
Oo4L9fdl,100,1, test, 7, 7, 9, 4, 1, 4, 1, 0.65, 0.35, left, 1, 0.35, 0.45, 0.55, 0.65, 2.2027546999888727, 0, 5.000000,77.000000,1.000000,6.000000,0.500000,1.000000
Oo4L9fdl,100,1, test, 7, 7, 10, 3, 2, 2, 3, 0.55, 0.45, right, 2, 0.35, 0.45, 0.55, 0.65, 0.6912139000050956, 1, 6.000000,78.000000,1.000000,6.000000,0.500000,1.000000
Oo4L9fdl,100,1, test, 7, 7, 11, 2, 4, 4, 2, 0.45, 0.65, right, 2, 0.35, 0.45, 0.55, 0.65, 1.2086621000053128, 1, 7.000000,79.000000,1.000000,6.000000,0.500000,1.000000
Oo4L9fdl,100,1, test, 7, 7, 12, 4, 1, 4, 1, 0.65, 0.35, left, 1, 0.35, 0.45, 0.55, 0.65, 2.9732634000101825, 1, 8.000000,80.000000,1.000000,6.000000,0.500000,1.000000
Oo4L9fdl,100,1, test, 7, 7, 13, 1, 4, 4, 1, 0.35, 0.65, right, 2, 0.35, 0.45, 0.55, 0.65, 1.6113149000011617, 0, 8.000000,80.000000,1.000000,6.000000,0.500000,1.000000
Oo4L9fdl,100,1, test, 7, 7, 14, 2, 4, 2, 4, 0.45, 0.65, left, 1, 0.35, 0.45, 0.55, 0.65, 1.0839421999990009, 1, 9.000000,81.000000,1.000000,6.000000,0.500000,1.000000
Oo4L9fdl,100,1, test, 7, 7, 15, 1, 3, 3, 1, 0.35, 0.55, right, 2, 0.35, 0.45, 0.55, 0.65, 0.00012060000153724104, 0, 9.000000,81.000000,1.000000,6.000000,0.500000,1.000000
Oo4L9fdl,100,1, test, 7, 7, 16, 2, 3, 3, 2, 0.45, 0.55, right, 2, 0.35, 0.45, 0.55, 0.65, 1.9461704999994254, 0, 9.000000,81.000000,1.000000,6.000000,0.500000,1.000000
Oo4L9fdl,100,1, test, 7, 7, 17, 3, 2, 3, 2, 0.55, 0.45, left, 1, 0.35, 0.45, 0.55, 0.65, 0.5724587000004249, 1, 10.000000,82.000000,1.000000,6.000000,0.500000,1.000000
Oo4L9fdl,100,1, test, 7, 7, 18, 3, 2, 2, 3, 0.55, 0.45, right, 2, 0.35, 0.45, 0.55, 0.65, 1.4865161000052467, 0, 10.000000,82.000000,1.000000,6.000000,0.500000,1.000000
Oo4L9fdl,100,1, test, 7, 7, 19, 4, 1, 4, 1, 0.65, 0.35, left, 1, 0.35, 0.45, 0.55, 0.65, 1.3517762999981642, 1, 11.000000,83.000000,1.000000,6.000000,0.500000,1.000000
Oo4L9fdl,100,1, test, 7, 7, 20, 3, 2, 2, 3, 0.55, 0.45, right, 2, 0.35, 0.45, 0.55, 0.65, 1.5464199999987613, 0, 11.000000,83.000000,1.000000,6.000000,0.500000,1.000000
Oo4L9fdl,100,1, test, 7, 7, 21, 3, 2, 3, 2, 0.55, 0.45, left, 1, 0.35, 0.45, 0.55, 0.65, 0.9650907000032021, 1, 12.000000,84.000000,1.000000,6.000000,0.500000,1.000000
Oo4L9fdl,100,1, test, 7, 7, 22, 2, 4, 2, 4, 0.45, 0.65, left, 1, 0.35, 0.45, 0.55, 0.65, 1.3990288999921177, 1, 13.000000,85.000000,1.000000,6.000000,0.500000,1.000000
Oo4L9fdl,100,1, test, 7, 7, 23, 3, 1, 3, 1, 0.55, 0.35, left, 1, 0.35, 0.45, 0.55, 0.65, 0.7995973999932176, 1, 14.000000,86.000000,1.000000,6.000000,0.500000,1.000000
Oo4L9fdl,100,1, test, 7, 7, 24, 2, 4, 2, 4, 0.45, 0.65, left, 1, 0.35, 0.45, 0.55, 0.65, 0.904230699990876, 0, 14.000000,86.000000,1.000000,6.000000,0.500000,1.000000
Oo4L9fdl,100,1, test, 7, 7, 25, 3, 4, 4, 3, 0.55, 0.65, right, 2, 0.35, 0.45, 0.55, 0.65, 0.4928877999918768, 0, 14.000000,86.000000,1.000000,6.000000,0.500000,1.000000
Oo4L9fdl,100,1, test, 8, 1, 1, 1, 4, 4, 1, 0.35, 0.65, right, 2, 0.35, 0.45, 0.55, 0.65, 0.633633400007966, 0, 0.000000,86.000000,1.000000,6.000000,0.500000,1.000000
Oo4L9fdl,100,1, test, 8, 1, 2, 3, 4, 3, 4, 0.55, 0.65, left, 1, 0.35, 0.45, 0.55, 0.65, 1.1689329000073485, 0, 0.000000,86.000000,1.000000,6.000000,0.500000,1.000000
Oo4L9fdl,100,1, test, 8, 1, 3, 4, 1, 4, 1, 0.65, 0.35, left, 1, 0.35, 0.45, 0.55, 0.65, 0.7148775999958161, 1, 1.000000,87.000000,1.000000,6.000000,0.500000,1.000000
Oo4L9fdl,100,1, test, 8, 1, 4, 2, 1, 2, 1, 0.45, 0.35, left, 1, 0.35, 0.45, 0.55, 0.65, 0.7789459999912651, 0, 1.000000,87.000000,1.000000,6.000000,0.500000,1.000000
Oo4L9fdl,100,1, test, 8, 1, 5, 4, 1, 4, 1, 0.65, 0.35, left, 1, 0.35, 0.45, 0.55, 0.65, 0.7009042999998201, 1, 2.000000,88.000000,1.000000,6.000000,0.500000,1.000000
Oo4L9fdl,100,1, test, 8, 1, 6, 2, 1, 1, 2, 0.45, 0.35, right, 2, 0.35, 0.45, 0.55, 0.65, 0.43762869999045506, 0, 2.000000,88.000000,1.000000,6.000000,0.500000,1.000000
Oo4L9fdl,100,1, test, 8, 1, 7, 3, 2, 2, 3, 0.55, 0.45, right, 2, 0.35, 0.45, 0.55, 0.65, 1.204874100003508, 1, 3.000000,89.000000,1.000000,6.000000,0.500000,1.000000
Oo4L9fdl,100,1, test, 8, 1, 8, 4, 3, 3, 4, 0.65, 0.55, right, 2, 0.35, 0.45, 0.55, 0.65, 0.7975204999966081, 1, 4.000000,90.000000,1.000000,6.000000,0.500000,1.000000
Oo4L9fdl,100,1, test, 8, 1, 9, 4, 1, 4, 1, 0.65, 0.35, left, 1, 0.35, 0.45, 0.55, 0.65, 0.9501729000039632, 1, 5.000000,91.000000,1.000000,6.000000,0.500000,1.000000
Oo4L9fdl,100,1, test, 8, 1, 10, 3, 2, 3, 2, 0.55, 0.45, left, 1, 0.35, 0.45, 0.55, 0.65, 2.2847915000020294, 0, 5.000000,91.000000,1.000000,6.000000,0.500000,1.000000
Oo4L9fdl,100,1, test, 8, 1, 11, 3, 2, 2, 3, 0.55, 0.45, right, 2, 0.35, 0.45, 0.55, 0.65, 1.4900899000058416, 1, 6.000000,92.000000,1.000000,6.000000,0.500000,1.000000
Oo4L9fdl,100,1, test, 8, 1, 12, 3, 2, 2, 3, 0.55, 0.45, right, 2, 0.35, 0.45, 0.55, 0.65, 1.059454000002006, 1, 7.000000,93.000000,1.000000,6.000000,0.500000,1.000000
Oo4L9fdl,100,1, test, 8, 1, 13, 4, 3, 3, 4, 0.65, 0.55, right, 2, 0.35, 0.45, 0.55, 0.65, 0.5620644000009634, 1, 8.000000,94.000000,1.000000,6.000000,0.500000,1.000000
Oo4L9fdl,100,1, test, 8, 1, 14, 4, 3, 3, 4, 0.65, 0.55, right, 2, 0.35, 0.45, 0.55, 0.65, 0.6127796000073431, 0, 8.000000,94.000000,1.000000,6.000000,0.500000,1.000000
Oo4L9fdl,100,1, test, 8, 1, 15, 4, 1, 1, 4, 0.65, 0.35, right, 2, 0.35, 0.45, 0.55, 0.65, 1.0294464999897173, 1, 9.000000,95.000000,1.000000,6.000000,0.500000,1.000000
Oo4L9fdl,100,1, test, 8, 1, 16, 3, 2, 2, 3, 0.55, 0.45, right, 2, 0.35, 0.45, 0.55, 0.65, 1.0974067999923136, 1, 10.000000,96.000000,1.000000,6.000000,0.500000,1.000000
Oo4L9fdl,100,1, test, 8, 1, 17, 4, 2, 2, 4, 0.65, 0.45, right, 2, 0.35, 0.45, 0.55, 0.65, 1.1980872999993153, 0, 10.000000,96.000000,1.000000,6.000000,0.500000,1.000000
Oo4L9fdl,100,1, test, 8, 1, 18, 2, 3, 3, 2, 0.45, 0.55, right, 2, 0.35, 0.45, 0.55, 0.65, 1.3147208000009414, 1, 11.000000,97.000000,1.000000,6.000000,0.500000,1.000000
Oo4L9fdl,100,1, test, 8, 1, 19, 4, 1, 1, 4, 0.65, 0.35, right, 2, 0.35, 0.45, 0.55, 0.65, 1.186507199992775, 0, 11.000000,97.000000,1.000000,6.000000,0.500000,1.000000
Oo4L9fdl,100,1, test, 8, 1, 20, 1, 3, 1, 3, 0.35, 0.55, left, 1, 0.35, 0.45, 0.55, 0.65, 1.1000831999990623, 1, 12.000000,98.000000,1.000000,6.000000,0.500000,1.000000
Oo4L9fdl,100,1, test, 8, 1, 21, 1, 2, 1, 2, 0.35, 0.45, left, 1, 0.35, 0.45, 0.55, 0.65, 1.3885875000123633, 1, 13.000000,99.000000,1.000000,6.000000,0.500000,1.000000
Oo4L9fdl,100,1, test, 8, 1, 22, 1, 3, 1, 3, 0.35, 0.55, left, 1, 0.35, 0.45, 0.55, 0.65, 1.8980508000095142, 1, 14.000000,100.000000,1.000000,6.000000,0.500000,1.000000
Oo4L9fdl,100,1, test, 8, 1, 23, 4, 3, 4, 3, 0.65, 0.55, left, 1, 0.35, 0.45, 0.55, 0.65, 0.9180865999951493, 1, 15.000000,101.000000,1.000000,6.000000,0.500000,1.000000
Oo4L9fdl,100,1, test, 8, 1, 24, 4, 2, 2, 4, 0.65, 0.45, right, 2, 0.35, 0.45, 0.55, 0.65, 0.7467131000012159, 0, 15.000000,101.000000,1.000000,6.000000,0.500000,1.000000
Oo4L9fdl,100,1, test, 8, 1, 25, 2, 3, 3, 2, 0.45, 0.55, right, 2, 0.35, 0.45, 0.55, 0.65, 1.3733876999904169, 0, 15.000000,101.000000,1.000000,6.000000,0.500000,1.000000
