ShaharID, group, counterbalance, block_type, block, delay_condition, trial, chosen, unchosen, offer_left_image, offer_right_image, exp_value_chosen, exp_value_unchosen, choice_location, choice_key, exp_value1, exp_value2, exp_value3, exp_value4, RT, reward, coins_per_block, coins_per_task,ITI_duration,rt_deadline,choice_feedback_duration,outcome_duration
fHuaqm90,100,0, practice, 1, 1, 1, 4, 2, 4, 2, 0.65, 0.45, left, 1, 0.35, 0.45, 0.55, 0.65, 4.1546807999257, 0, 0.000000,0.000000,1.000000,6.000000,0.500000,1.000000
fHuaqm90,100,0, practice, 1, 1, 2, 1, 4, 1, 4, 0.35, 0.65, left, 1, 0.35, 0.45, 0.55, 0.65, 1.3282201999099925, 0, 0.000000,0.000000,1.000000,6.000000,0.500000,1.000000
fHuaqm90,100,0, practice, 1, 1, 3, 2, 1, 2, 1, 0.45, 0.35, left, 1, 0.35, 0.45, 0.55, 0.65, 3.7552531000692397, 1, 1.000000,1.000000,1.000000,6.000000,0.500000,1.000000
fHuaqm90,100,0, practice, 1, 1, 4, 3, 1, 1, 3, 0.55, 0.35, right, 2, 0.35, 0.45, 0.55, 0.65, 3.2255998000036925, 1, 2.000000,2.000000,1.000000,6.000000,0.500000,1.000000
fHuaqm90,100,0, practice, 1, 1, 5, 4, 3, 3, 4, 0.65, 0.55, right, 2, 0.35, 0.45, 0.55, 0.65, 1.7165673000272363, 0, 2.000000,2.000000,1.000000,6.000000,0.500000,1.000000
fHuaqm90,100,0, test, 1, 1, 1, 4, 3, 4, 3, 0.65, 0.55, left, 1, 0.35, 0.45, 0.55, 0.65, 1.500958300079219, 1, 1.000000,3.000000,1.000000,6.000000,0.500000,1.000000
fHuaqm90,100,0, test, 1, 1, 2, 4, 3, 3, 4, 0.65, 0.55, right, 2, 0.35, 0.45, 0.55, 0.65, 1.125807199976407, 0, 1.000000,3.000000,1.000000,6.000000,0.500000,1.000000
fHuaqm90,100,0, test, 1, 1, 3, 4, 1, 4, 1, 0.65, 0.35, left, 1, 0.35, 0.45, 0.55, 0.65, 0.9615714000537992, 0, 1.000000,3.000000,1.000000,6.000000,0.500000,1.000000
fHuaqm90,100,0, test, 1, 1, 4, 2, 3, 2, 3, 0.45, 0.55, left, 1, 0.35, 0.45, 0.55, 0.65, 0.7112259999848902, 1, 2.000000,4.000000,1.000000,6.000000,0.500000,1.000000
fHuaqm90,100,0, test, 1, 1, 5, 1, 3, 3, 1, 0.35, 0.55, right, 2, 0.35, 0.45, 0.55, 0.65, 1.205191999906674, 0, 2.000000,4.000000,1.000000,6.000000,0.500000,1.000000
fHuaqm90,100,0, test, 1, 1, 6, 2, 3, 2, 3, 0.45, 0.55, left, 1, 0.35, 0.45, 0.55, 0.65, 0.5072650000220165, 1, 3.000000,5.000000,1.000000,6.000000,0.500000,1.000000
fHuaqm90,100,0, test, 1, 1, 7, 3, 1, 1, 3, 0.55, 0.35, right, 2, 0.35, 0.45, 0.55, 0.65, 0.9568921000463888, 1, 4.000000,6.000000,1.000000,6.000000,0.500000,1.000000
fHuaqm90,100,0, test, 1, 1, 8, 1, 2, 1, 2, 0.35, 0.45, left, 1, 0.35, 0.45, 0.55, 0.65, 0.37161639996338636, 0, 4.000000,6.000000,1.000000,6.000000,0.500000,1.000000
fHuaqm90,100,0, test, 1, 1, 9, 2, 3, 3, 2, 0.45, 0.55, right, 2, 0.35, 0.45, 0.55, 0.65, 2.245564499986358, 0, 4.000000,6.000000,1.000000,6.000000,0.500000,1.000000
fHuaqm90,100,0, test, 1, 1, 10, 2, 3, 2, 3, 0.45, 0.55, left, 1, 0.35, 0.45, 0.55, 0.65, 1.7195753999985754, 1, 5.000000,7.000000,1.000000,6.000000,0.500000,1.000000
fHuaqm90,100,0, test, 1, 1, 11, 3, 4, 3, 4, 0.55, 0.65, left, 1, 0.35, 0.45, 0.55, 0.65, 1.603452599956654, 0, 5.000000,7.000000,1.000000,6.000000,0.500000,1.000000
fHuaqm90,100,0, test, 1, 1, 12, 4, 2, 4, 2, 0.65, 0.45, left, 1, 0.35, 0.45, 0.55, 0.65, 1.3295496000209823, 1, 6.000000,8.000000,1.000000,6.000000,0.500000,1.000000
fHuaqm90,100,0, test, 1, 1, 13, 1, 4, 1, 4, 0.35, 0.65, left, 1, 0.35, 0.45, 0.55, 0.65, 0.6839981999946758, 0, 6.000000,8.000000,1.000000,6.000000,0.500000,1.000000
fHuaqm90,100,0, test, 1, 1, 14, 3, 2, 2, 3, 0.55, 0.45, right, 2, 0.35, 0.45, 0.55, 0.65, 0.43025430000852793, 0, 6.000000,8.000000,1.000000,6.000000,0.500000,1.000000
fHuaqm90,100,0, test, 1, 1, 15, 3, 1, 3, 1, 0.55, 0.35, left, 1, 0.35, 0.45, 0.55, 0.65, 0.5609787000576034, 0, 6.000000,8.000000,1.000000,6.000000,0.500000,1.000000
fHuaqm90,100,0, test, 1, 1, 16, 2, 4, 4, 2, 0.45, 0.65, right, 2, 0.35, 0.45, 0.55, 0.65, 1.145117299980484, 0, 6.000000,8.000000,1.000000,6.000000,0.500000,1.000000
fHuaqm90,100,0, test, 1, 1, 17, 3, 2, 3, 2, 0.55, 0.45, left, 1, 0.35, 0.45, 0.55, 0.65, 0.5016583999386057, 0, 6.000000,8.000000,1.000000,6.000000,0.500000,1.000000
fHuaqm90,100,0, test, 1, 1, 18, 2, 4, 2, 4, 0.45, 0.65, left, 1, 0.35, 0.45, 0.55, 0.65, 0.7664875000482425, 1, 7.000000,9.000000,1.000000,6.000000,0.500000,1.000000
fHuaqm90,100,0, test, 1, 1, 19, 3, 2, 2, 3, 0.55, 0.45, right, 2, 0.35, 0.45, 0.55, 0.65, 2.0755950999446213, 0, 7.000000,9.000000,1.000000,6.000000,0.500000,1.000000
fHuaqm90,100,0, test, 1, 1, 20, 3, 2, 3, 2, 0.55, 0.45, left, 1, 0.35, 0.45, 0.55, 0.65, 1.1476391999749467, 1, 8.000000,10.000000,1.000000,6.000000,0.500000,1.000000
fHuaqm90,100,0, test, 1, 1, 21, 2, 4, 2, 4, 0.45, 0.65, left, 1, 0.35, 0.45, 0.55, 0.65, 1.1581071000546217, 0, 8.000000,10.000000,1.000000,6.000000,0.500000,1.000000
fHuaqm90,100,0, test, 1, 1, 22, 1, 4, 1, 4, 0.35, 0.65, left, 1, 0.35, 0.45, 0.55, 0.65, 0.8556810000445694, 0, 8.000000,10.000000,1.000000,6.000000,0.500000,1.000000
fHuaqm90,100,0, test, 1, 1, 23, 1, 2, 1, 2, 0.35, 0.45, left, 1, 0.35, 0.45, 0.55, 0.65, 0.8143425000598654, 0, 8.000000,10.000000,1.000000,6.000000,0.500000,1.000000
fHuaqm90,100,0, test, 1, 1, 24, 3, 1, 3, 1, 0.55, 0.35, left, 1, 0.35, 0.45, 0.55, 0.65, 0.47937630000524223, 1, 9.000000,11.000000,1.000000,6.000000,0.500000,1.000000
fHuaqm90,100,0, test, 1, 1, 25, 4, 3, 3, 4, 0.65, 0.55, right, 2, 0.35, 0.45, 0.55, 0.65, 1.6706654999870807, 1, 10.000000,12.000000,1.000000,6.000000,0.500000,1.000000
fHuaqm90,100,0, test, 2, 7, 1, 3, 2, 3, 2, 0.55, 0.45, left, 1, 0.35, 0.45, 0.55, 0.65, 0.906792699941434, 0, 0.000000,12.000000,1.000000,6.000000,0.500000,1.000000
fHuaqm90,100,0, test, 2, 7, 2, 3, 1, 1, 3, 0.55, 0.35, right, 2, 0.35, 0.45, 0.55, 0.65, 0.3616766999475658, 1, 1.000000,13.000000,1.000000,6.000000,0.500000,1.000000
fHuaqm90,100,0, test, 2, 7, 3, 1, 2, 2, 1, 0.35, 0.45, right, 2, 0.35, 0.45, 0.55, 0.65, 1.5373327999841422, 0, 1.000000,13.000000,1.000000,6.000000,0.500000,1.000000
fHuaqm90,100,0, test, 2, 7, 4, 2, 1, 2, 1, 0.45, 0.35, left, 1, 0.35, 0.45, 0.55, 0.65, 0.3446690000128001, 1, 2.000000,14.000000,1.000000,6.000000,0.500000,1.000000
fHuaqm90,100,0, test, 2, 7, 5, 1, 2, 2, 1, 0.35, 0.45, right, 2, 0.35, 0.45, 0.55, 0.65, 0.9159584000008181, 1, 3.000000,15.000000,1.000000,6.000000,0.500000,1.000000
fHuaqm90,100,0, test, 2, 7, 6, 3, 2, 3, 2, 0.55, 0.45, left, 1, 0.35, 0.45, 0.55, 0.65, 0.6160011000465602, 0, 3.000000,15.000000,1.000000,6.000000,0.500000,1.000000
fHuaqm90,100,0, test, 2, 7, 7, 2, 1, 2, 1, 0.45, 0.35, left, 1, 0.35, 0.45, 0.55, 0.65, 1.7119309999980032, 0, 3.000000,15.000000,1.000000,6.000000,0.500000,1.000000
fHuaqm90,100,0, test, 2, 7, 8, 3, 2, 2, 3, 0.55, 0.45, right, 2, 0.35, 0.45, 0.55, 0.65, 1.2366699000122026, 1, 4.000000,16.000000,1.000000,6.000000,0.500000,1.000000
fHuaqm90,100,0, test, 2, 7, 9, 4, 1, 1, 4, 0.65, 0.35, right, 2, 0.35, 0.45, 0.55, 0.65, 3.5390444999793544, 1, 5.000000,17.000000,1.000000,6.000000,0.500000,1.000000
fHuaqm90,100,0, test, 2, 7, 10, 3, 1, 1, 3, 0.55, 0.35, right, 2, 0.35, 0.45, 0.55, 0.65, 2.235386300017126, 0, 5.000000,17.000000,1.000000,6.000000,0.500000,1.000000
fHuaqm90,100,0, test, 2, 7, 11, 2, 3, 3, 2, 0.45, 0.55, right, 2, 0.35, 0.45, 0.55, 0.65, 3.2026392000261694, 1, 6.000000,18.000000,1.000000,6.000000,0.500000,1.000000
fHuaqm90,100,0, test, 2, 7, 12, 3, 2, 3, 2, 0.55, 0.45, left, 1, 0.35, 0.45, 0.55, 0.65, 4.6552642999449745, 0, 6.000000,18.000000,1.000000,6.000000,0.500000,1.000000
fHuaqm90,100,0, test, 2, 7, 13, 4, 3, 3, 4, 0.65, 0.55, right, 2, 0.35, 0.45, 0.55, 0.65, 5.613956899964251, 1, 7.000000,19.000000,1.000000,6.000000,0.500000,1.000000
fHuaqm90,100,0, test, 2, 7, 14, 2, 1, 1, 2, 0.45, 0.35, right, 2, 0.35, 0.45, 0.55, 0.65, 3.3140723999822512, 0, 7.000000,19.000000,1.000000,6.000000,0.500000,1.000000
fHuaqm90,100,0, test, 2, 7, 15, 1, 3, 3, 1, 0.35, 0.55, right, 2, 0.35, 0.45, 0.55, 0.65, 2.8059131000190973, 0, 7.000000,19.000000,1.000000,6.000000,0.500000,1.000000
fHuaqm90,100,0, test, 2, 7, 16, 4, 1, 4, 1, 0.65, 0.35, left, 1, 0.35, 0.45, 0.55, 0.65, 2.710480500012636, 1, 8.000000,20.000000,1.000000,6.000000,0.500000,1.000000
fHuaqm90,100,0, test, 2, 7, 17, 2, 4, 4, 2, 0.45, 0.65, right, 2, 0.35, 0.45, 0.55, 0.65, 2.0033986000344157, 0, 8.000000,20.000000,1.000000,6.000000,0.500000,1.000000
fHuaqm90,100,0, test, 2, 7, 18, 1, 2, 2, 1, 0.35, 0.45, right, 2, 0.35, 0.45, 0.55, 0.65, 1.472016500076279, 0, 8.000000,20.000000,1.000000,6.000000,0.500000,1.000000
fHuaqm90,100,0, test, 2, 7, 19
fHuaqm90,100,0, test, 2, 7, 20, 2, 3, 2, 3, 0.45, 0.55, left, 1, 0.35, 0.45, 0.55, 0.65, 1.7349057999672368, 1, 9.000000,21.000000,1.000000,6.000000,0.500000,1.000000
fHuaqm90,100,0, test, 2, 7, 21, 1, 3, 1, 3, 0.35, 0.55, left, 1, 0.35, 0.45, 0.55, 0.65, 1.817918499931693, 0, 9.000000,21.000000,1.000000,6.000000,0.500000,1.000000
fHuaqm90,100,0, test, 2, 7, 22, 3, 1, 3, 1, 0.55, 0.35, left, 1, 0.35, 0.45, 0.55, 0.65, 1.832723299972713, 0, 9.000000,21.000000,1.000000,6.000000,0.500000,1.000000
fHuaqm90,100,0, test, 2, 7, 23, 2, 4, 2, 4, 0.45, 0.65, left, 1, 0.35, 0.45, 0.55, 0.65, 1.4091577999060974, 0, 9.000000,21.000000,1.000000,6.000000,0.500000,1.000000
fHuaqm90,100,0, test, 2, 7, 24, 4, 2, 4, 2, 0.65, 0.45, left, 1, 0.35, 0.45, 0.55, 0.65, 3.20158310001716, 0, 9.000000,21.000000,1.000000,6.000000,0.500000,1.000000
fHuaqm90,100,0, test, 2, 7, 25, 1, 4, 4, 1, 0.35, 0.65, right, 2, 0.35, 0.45, 0.55, 0.65, 3.4742333999602124, 0, 9.000000,21.000000,1.000000,6.000000,0.500000,1.000000
fHuaqm90,100,0, test, 3, 1, 1, 3, 2, 3, 2, 0.55, 0.45, left, 1, 0.35, 0.45, 0.55, 0.65, 1.0790280000073835, 0, 0.000000,21.000000,1.000000,6.000000,0.500000,1.000000
fHuaqm90,100,0, test, 3, 1, 2, 1, 4, 1, 4, 0.35, 0.65, left, 1, 0.35, 0.45, 0.55, 0.65, 1.7919884000439197, 0, 0.000000,21.000000,1.000000,6.000000,0.500000,1.000000
fHuaqm90,100,0, test, 3, 1, 3, 4, 1, 1, 4, 0.65, 0.35, right, 2, 0.35, 0.45, 0.55, 0.65, 1.0170001999940723, 1, 1.000000,22.000000,1.000000,6.000000,0.500000,1.000000
fHuaqm90,100,0, test, 3, 1, 4, 3, 2, 2, 3, 0.55, 0.45, right, 2, 0.35, 0.45, 0.55, 0.65, 1.4293916000751778, 1, 2.000000,23.000000,1.000000,6.000000,0.500000,1.000000
fHuaqm90,100,0, test, 3, 1, 5, 3, 1, 1, 3, 0.55, 0.35, right, 2, 0.35, 0.45, 0.55, 0.65, 0.8354434000793844, 1, 3.000000,24.000000,1.000000,6.000000,0.500000,1.000000
fHuaqm90,100,0, test, 3, 1, 6, 2, 3, 3, 2, 0.45, 0.55, right, 2, 0.35, 0.45, 0.55, 0.65, 0.9837408000603318, 0, 3.000000,24.000000,1.000000,6.000000,0.500000,1.000000
fHuaqm90,100,0, test, 3, 1, 7, 3, 4, 4, 3, 0.55, 0.65, right, 2, 0.35, 0.45, 0.55, 0.65, 1.7001231999602169, 0, 3.000000,24.000000,1.000000,6.000000,0.500000,1.000000
fHuaqm90,100,0, test, 3, 1, 8, 4, 1, 1, 4, 0.65, 0.35, right, 2, 0.35, 0.45, 0.55, 0.65, 1.3371925000101328, 0, 3.000000,24.000000,1.000000,6.000000,0.500000,1.000000
fHuaqm90,100,0, test, 3, 1, 9, 2, 1, 2, 1, 0.45, 0.35, left, 1, 0.35, 0.45, 0.55, 0.65, 0.7999578999588266, 0, 3.000000,24.000000,1.000000,6.000000,0.500000,1.000000
fHuaqm90,100,0, test, 3, 1, 10, 4, 1, 1, 4, 0.65, 0.35, right, 2, 0.35, 0.45, 0.55, 0.65, 0.8292270000092685, 0, 3.000000,24.000000,1.000000,6.000000,0.500000,1.000000
fHuaqm90,100,0, test, 3, 1, 11, 3, 4, 4, 3, 0.55, 0.65, right, 2, 0.35, 0.45, 0.55, 0.65, 1.4609744999324903, 1, 4.000000,25.000000,1.000000,6.000000,0.500000,1.000000
fHuaqm90,100,0, test, 3, 1, 12, 3, 1, 1, 3, 0.55, 0.35, right, 2, 0.35, 0.45, 0.55, 0.65, 0.996698800008744, 0, 4.000000,25.000000,1.000000,6.000000,0.500000,1.000000
fHuaqm90,100,0, test, 3, 1, 13, 4, 3, 3, 4, 0.65, 0.55, right, 2, 0.35, 0.45, 0.55, 0.65, 0.6213433000957593, 1, 5.000000,26.000000,1.000000,6.000000,0.500000,1.000000
fHuaqm90,100,0, test, 3, 1, 14, 4, 1, 4, 1, 0.65, 0.35, left, 1, 0.35, 0.45, 0.55, 0.65, 1.4840787999564782, 1, 6.000000,27.000000,1.000000,6.000000,0.500000,1.000000
fHuaqm90,100,0, test, 3, 1, 15, 3, 1, 1, 3, 0.55, 0.35, right, 2, 0.35, 0.45, 0.55, 0.65, 1.3454755001002923, 1, 7.000000,28.000000,1.000000,6.000000,0.500000,1.000000
fHuaqm90,100,0, test, 3, 1, 16, 4, 1, 4, 1, 0.65, 0.35, left, 1, 0.35, 0.45, 0.55, 0.65, 1.3617986000608653, 1, 8.000000,29.000000,1.000000,6.000000,0.500000,1.000000
fHuaqm90,100,0, test, 3, 1, 17, 4, 3, 3, 4, 0.65, 0.55, right, 2, 0.35, 0.45, 0.55, 0.65, 0.9674557999242097, 0, 8.000000,29.000000,1.000000,6.000000,0.500000,1.000000
fHuaqm90,100,0, test, 3, 1, 18, 3, 4, 3, 4, 0.55, 0.65, left, 1, 0.35, 0.45, 0.55, 0.65, 0.7424586999695748, 0, 8.000000,29.000000,1.000000,6.000000,0.500000,1.000000
fHuaqm90,100,0, test, 3, 1, 19, 3, 1, 1, 3, 0.55, 0.35, right, 2, 0.35, 0.45, 0.55, 0.65, 0.8288251999765635, 1, 9.000000,30.000000,1.000000,6.000000,0.500000,1.000000
fHuaqm90,100,0, test, 3, 1, 20, 4, 2, 4, 2, 0.65, 0.45, left, 1, 0.35, 0.45, 0.55, 0.65, 0.905793400015682, 0, 9.000000,30.000000,1.000000,6.000000,0.500000,1.000000
fHuaqm90,100,0, test, 3, 1, 21, 3, 1, 1, 3, 0.55, 0.35, right, 2, 0.35, 0.45, 0.55, 0.65, 0.43347560008987784, 0, 9.000000,30.000000,1.000000,6.000000,0.500000,1.000000
fHuaqm90,100,0, test, 3, 1, 22, 4, 3, 3, 4, 0.65, 0.55, right, 2, 0.35, 0.45, 0.55, 0.65, 0.5497709999326617, 1, 10.000000,31.000000,1.000000,6.000000,0.500000,1.000000
fHuaqm90,100,0, test, 3, 1, 23, 2, 3, 3, 2, 0.45, 0.55, right, 2, 0.35, 0.45, 0.55, 0.65, 4.839652800001204, 1, 11.000000,32.000000,1.000000,6.000000,0.500000,1.000000
fHuaqm90,100,0, test, 3, 1, 24, 4, 3, 3, 4, 0.65, 0.55, right, 2, 0.35, 0.45, 0.55, 0.65, 0.9478740999475121, 1, 12.000000,33.000000,1.000000,6.000000,0.500000,1.000000
fHuaqm90,100,0, test, 3, 1, 25, 3, 4, 4, 3, 0.55, 0.65, right, 2, 0.35, 0.45, 0.55, 0.65, 1.7945839000167325, 1, 13.000000,34.000000,1.000000,6.000000,0.500000,1.000000
fHuaqm90,100,0, test, 4, 7, 1, 1, 3, 1, 3, 0.35, 0.55, left, 1, 0.35, 0.45, 0.55, 0.65, 1.56691429996863, 0, 0.000000,34.000000,1.000000,6.000000,0.500000,1.000000
fHuaqm90,100,0, test, 4, 7, 2, 4, 2, 2, 4, 0.65, 0.45, right, 2, 0.35, 0.45, 0.55, 0.65, 0.9398909999290481, 0, 0.000000,34.000000,1.000000,6.000000,0.500000,1.000000
fHuaqm90,100,0, test, 4, 7, 3, 1, 2, 2, 1, 0.35, 0.45, right, 2, 0.35, 0.45, 0.55, 0.65, 1.4591930999886245, 0, 0.000000,34.000000,1.000000,6.000000,0.500000,1.000000
fHuaqm90,100,0, test, 4, 7, 4, 4, 1, 1, 4, 0.65, 0.35, right, 2, 0.35, 0.45, 0.55, 0.65, 1.0136742999311537, 1, 1.000000,35.000000,1.000000,6.000000,0.500000,1.000000
fHuaqm90,100,0, test, 4, 7, 5, 3, 1, 1, 3, 0.55, 0.35, right, 2, 0.35, 0.45, 0.55, 0.65, 1.0393464000662789, 0, 1.000000,35.000000,1.000000,6.000000,0.500000,1.000000
fHuaqm90,100,0, test, 4, 7, 6, 4, 3, 3, 4, 0.65, 0.55, right, 2, 0.35, 0.45, 0.55, 0.65, 1.1586406000424176, 1, 2.000000,36.000000,1.000000,6.000000,0.500000,1.000000
fHuaqm90,100,0, test, 4, 7, 7, 3, 4, 3, 4, 0.55, 0.65, left, 1, 0.35, 0.45, 0.55, 0.65, 1.1053517999826, 1, 3.000000,37.000000,1.000000,6.000000,0.500000,1.000000
fHuaqm90,100,0, test, 4, 7, 8, 2, 4, 4, 2, 0.45, 0.65, right, 2, 0.35, 0.45, 0.55, 0.65, 0.8656526999548078, 0, 3.000000,37.000000,1.000000,6.000000,0.500000,1.000000
fHuaqm90,100,0, test, 4, 7, 9, 1, 2, 1, 2, 0.35, 0.45, left, 1, 0.35, 0.45, 0.55, 0.65, 1.4730050000362098, 0, 3.000000,37.000000,1.000000,6.000000,0.500000,1.000000
fHuaqm90,100,0, test, 4, 7, 10, 2, 4, 4, 2, 0.45, 0.65, right, 2, 0.35, 0.45, 0.55, 0.65, 1.8340662999544293, 1, 4.000000,38.000000,1.000000,6.000000,0.500000,1.000000
fHuaqm90,100,0, test, 4, 7, 11, 3, 1, 1, 3, 0.55, 0.35, right, 2, 0.35, 0.45, 0.55, 0.65, 1.8023667000234127, 1, 5.000000,39.000000,1.000000,6.000000,0.500000,1.000000
fHuaqm90,100,0, test, 4, 7, 12, 2, 3, 3, 2, 0.45, 0.55, right, 2, 0.35, 0.45, 0.55, 0.65, 1.2781887000892311, 1, 6.000000,40.000000,1.000000,6.000000,0.500000,1.000000
fHuaqm90,100,0, test, 4, 7, 13, 2, 3, 3, 2, 0.45, 0.55, right, 2, 0.35, 0.45, 0.55, 0.65, 1.5066197999985889, 1, 7.000000,41.000000,1.000000,6.000000,0.500000,1.000000
fHuaqm90,100,0, test, 4, 7, 14, 1, 2, 2, 1, 0.35, 0.45, right, 2, 0.35, 0.45, 0.55, 0.65, 2.37153580004815, 1, 8.000000,42.000000,1.000000,6.000000,0.500000,1.000000
fHuaqm90,100,0, test, 4, 7, 15, 2, 1, 2, 1, 0.45, 0.35, left, 1, 0.35, 0.45, 0.55, 0.65, 1.3133244999917224, 0, 8.000000,42.000000,1.000000,6.000000,0.500000,1.000000
fHuaqm90,100,0, test, 4, 7, 16, 2, 3, 3, 2, 0.45, 0.55, right, 2, 0.35, 0.45, 0.55, 0.65, 1.7173230999615043, 1, 9.000000,43.000000,1.000000,6.000000,0.500000,1.000000
fHuaqm90,100,0, test, 4, 7, 17, 3, 1, 1, 3, 0.55, 0.35, right, 2, 0.35, 0.45, 0.55, 0.65, 0.8335648000938818, 1, 10.000000,44.000000,1.000000,6.000000,0.500000,1.000000
fHuaqm90,100,0, test, 4, 7, 18, 1, 4, 4, 1, 0.35, 0.65, right, 2, 0.35, 0.45, 0.55, 0.65, 1.6091264999704435, 0, 10.000000,44.000000,1.000000,6.000000,0.500000,1.000000
fHuaqm90,100,0, test, 4, 7, 19, 3, 2, 3, 2, 0.55, 0.45, left, 1, 0.35, 0.45, 0.55, 0.65, 2.2814994000364095, 0, 10.000000,44.000000,1.000000,6.000000,0.500000,1.000000
fHuaqm90,100,0, test, 4, 7, 20, 2, 1, 1, 2, 0.45, 0.35, right, 2, 0.35, 0.45, 0.55, 0.65, 1.3459174999734387, 1, 11.000000,45.000000,1.000000,6.000000,0.500000,1.000000
fHuaqm90,100,0, test, 4, 7, 21, 4, 3, 4, 3, 0.65, 0.55, left, 1, 0.35, 0.45, 0.55, 0.65, 5.932581500033848, 1, 12.000000,46.000000,1.000000,6.000000,0.500000,1.000000
fHuaqm90,100,0, test, 4, 7, 22, 3, 2, 2, 3, 0.55, 0.45, right, 2, 0.35, 0.45, 0.55, 0.65, 1.995492999907583, 0, 12.000000,46.000000,1.000000,6.000000,0.500000,1.000000
fHuaqm90,100,0, test, 4, 7, 23, 4, 3, 3, 4, 0.65, 0.55, right, 2, 0.35, 0.45, 0.55, 0.65, 2.272854300099425, 1, 13.000000,47.000000,1.000000,6.000000,0.500000,1.000000
fHuaqm90,100,0, test, 4, 7, 24, 4, 3, 3, 4, 0.65, 0.55, right, 2, 0.35, 0.45, 0.55, 0.65, 4.2378779000137, 1, 14.000000,48.000000,1.000000,6.000000,0.500000,1.000000
fHuaqm90,100,0, test, 4, 7, 25, 2, 3, 3, 2, 0.45, 0.55, right, 2, 0.35, 0.45, 0.55, 0.65, 2.0782175000058487, 1, 15.000000,49.000000,1.000000,6.000000,0.500000,1.000000
fHuaqm90,100,0, test, 5, 1, 1, 4, 2, 2, 4, 0.65, 0.45, right, 2, 0.35, 0.45, 0.55, 0.65, 0.17590569995809346, 0, 0.000000,49.000000,1.000000,6.000000,0.500000,1.000000
fHuaqm90,100,0, test, 5, 1, 2, 4, 2, 4, 2, 0.65, 0.45, left, 1, 0.35, 0.45, 0.55, 0.65, 0.8266394999809563, 1, 1.000000,50.000000,1.000000,6.000000,0.500000,1.000000
fHuaqm90,100,0, test, 5, 1, 3, 2, 4, 2, 4, 0.45, 0.65, left, 1, 0.35, 0.45, 0.55, 0.65, 0.6609762000152841, 1, 2.000000,51.000000,1.000000,6.000000,0.500000,1.000000
fHuaqm90,100,0, test, 5, 1, 4, 3, 4, 3, 4, 0.55, 0.65, left, 1, 0.35, 0.45, 0.55, 0.65, 0.5193022000603378, 1, 3.000000,52.000000,1.000000,6.000000,0.500000,1.000000
fHuaqm90,100,0, test, 5, 1, 5, 1, 4, 4, 1, 0.35, 0.65, right, 2, 0.35, 0.45, 0.55, 0.65, 0.6832881000591442, 0, 3.000000,52.000000,1.000000,6.000000,0.500000,1.000000
fHuaqm90,100,0, test, 5, 1, 6, 4, 2, 4, 2, 0.65, 0.45, left, 1, 0.35, 0.45, 0.55, 0.65, 0.6006489000283182, 0, 3.000000,52.000000,1.000000,6.000000,0.500000,1.000000
fHuaqm90,100,0, test, 5, 1, 7, 4, 3, 3, 4, 0.65, 0.55, right, 2, 0.35, 0.45, 0.55, 0.65, 0.9211615000385791, 1, 4.000000,53.000000,1.000000,6.000000,0.500000,1.000000
fHuaqm90,100,0, test, 5, 1, 8, 1, 3, 1, 3, 0.35, 0.55, left, 1, 0.35, 0.45, 0.55, 0.65, 0.8502469999948516, 0, 4.000000,53.000000,1.000000,6.000000,0.500000,1.000000
fHuaqm90,100,0, test, 5, 1, 9, 3, 4, 4, 3, 0.55, 0.65, right, 2, 0.35, 0.45, 0.55, 0.65, 1.3238585999934003, 1, 5.000000,54.000000,1.000000,6.000000,0.500000,1.000000
fHuaqm90,100,0, test, 5, 1, 10, 3, 2, 2, 3, 0.55, 0.45, right, 2, 0.35, 0.45, 0.55, 0.65, 1.3596852999180555, 1, 6.000000,55.000000,1.000000,6.000000,0.500000,1.000000
fHuaqm90,100,0, test, 5, 1, 11, 2, 4, 4, 2, 0.45, 0.65, right, 2, 0.35, 0.45, 0.55, 0.65, 0.9753157000523061, 1, 7.000000,56.000000,1.000000,6.000000,0.500000,1.000000
fHuaqm90,100,0, test, 5, 1, 12, 3, 1, 1, 3, 0.55, 0.35, right, 2, 0.35, 0.45, 0.55, 0.65, 1.47336190007627, 0, 7.000000,56.000000,1.000000,6.000000,0.500000,1.000000
fHuaqm90,100,0, test, 5, 1, 13, 4, 3, 4, 3, 0.65, 0.55, left, 1, 0.35, 0.45, 0.55, 0.65, 0.8312821999425068, 1, 8.000000,57.000000,1.000000,6.000000,0.500000,1.000000
fHuaqm90,100,0, test, 5, 1, 14, 4, 2, 2, 4, 0.65, 0.45, right, 2, 0.35, 0.45, 0.55, 0.65, 0.661684799939394, 1, 9.000000,58.000000,1.000000,6.000000,0.500000,1.000000
fHuaqm90,100,0, test, 5, 1, 15, 3, 1, 1, 3, 0.55, 0.35, right, 2, 0.35, 0.45, 0.55, 0.65, 1.309345000074245, 0, 9.000000,58.000000,1.000000,6.000000,0.500000,1.000000
fHuaqm90,100,0, test, 5, 1, 16, 3, 2, 2, 3, 0.55, 0.45, right, 2, 0.35, 0.45, 0.55, 0.65, 1.9899791000643745, 0, 9.000000,58.000000,1.000000,6.000000,0.500000,1.000000
fHuaqm90,100,0, test, 5, 1, 17, 1, 4, 4, 1, 0.35, 0.65, right, 2, 0.35, 0.45, 0.55, 0.65, 1.8665510999271646, 0, 9.000000,58.000000,1.000000,6.000000,0.500000,1.000000
fHuaqm90,100,0, test, 5, 1, 18, 2, 3, 3, 2, 0.45, 0.55, right, 2, 0.35, 0.45, 0.55, 0.65, 1.4613932999782264, 1, 10.000000,59.000000,1.000000,6.000000,0.500000,1.000000
fHuaqm90,100,0, test, 5, 1, 19, 2, 1, 1, 2, 0.45, 0.35, right, 2, 0.35, 0.45, 0.55, 0.65, 0.8786247000098228, 1, 11.000000,60.000000,1.000000,6.000000,0.500000,1.000000
fHuaqm90,100,0, test, 5, 1, 20, 1, 2, 2, 1, 0.35, 0.45, right, 2, 0.35, 0.45, 0.55, 0.65, 1.1612071000272408, 0, 11.000000,60.000000,1.000000,6.000000,0.500000,1.000000
fHuaqm90,100,0, test, 5, 1, 21, 4, 1, 1, 4, 0.65, 0.35, right, 2, 0.35, 0.45, 0.55, 0.65, 0.6838592999847606, 1, 12.000000,61.000000,1.000000,6.000000,0.500000,1.000000
fHuaqm90,100,0, test, 5, 1, 22, 3, 1, 3, 1, 0.55, 0.35, left, 1, 0.35, 0.45, 0.55, 0.65, 1.0662666000425816, 0, 12.000000,61.000000,1.000000,6.000000,0.500000,1.000000
fHuaqm90,100,0, test, 5, 1, 23, 2, 4, 2, 4, 0.45, 0.65, left, 1, 0.35, 0.45, 0.55, 0.65, 1.5721776999998838, 0, 12.000000,61.000000,1.000000,6.000000,0.500000,1.000000
fHuaqm90,100,0, test, 5, 1, 24, 4, 1, 1, 4, 0.65, 0.35, right, 2, 0.35, 0.45, 0.55, 0.65, 0.48627710004802793, 1, 13.000000,62.000000,1.000000,6.000000,0.500000,1.000000
fHuaqm90,100,0, test, 5, 1, 25, 4, 3, 3, 4, 0.65, 0.55, right, 2, 0.35, 0.45, 0.55, 0.65, 0.4555274999001995, 0, 13.000000,62.000000,1.000000,6.000000,0.500000,1.000000
fHuaqm90,100,0, test, 6, 7, 1, 4, 1, 4, 1, 0.65, 0.35, left, 1, 0.35, 0.45, 0.55, 0.65, 0.748679400072433, 1, 1.000000,63.000000,1.000000,6.000000,0.500000,1.000000
fHuaqm90,100,0, test, 6, 7, 2, 3, 4, 3, 4, 0.55, 0.65, left, 1, 0.35, 0.45, 0.55, 0.65, 0.9834944999311119, 0, 1.000000,63.000000,1.000000,6.000000,0.500000,1.000000
fHuaqm90,100,0, test, 6, 7, 3, 2, 3, 3, 2, 0.45, 0.55, right, 2, 0.35, 0.45, 0.55, 0.65, 1.1116582000395283, 0, 1.000000,63.000000,1.000000,6.000000,0.500000,1.000000
fHuaqm90,100,0, test, 6, 7, 4, 3, 1, 1, 3, 0.55, 0.35, right, 2, 0.35, 0.45, 0.55, 0.65, 1.1316633999813348, 0, 1.000000,63.000000,1.000000,6.000000,0.500000,1.000000
fHuaqm90,100,0, test, 6, 7, 5, 2, 1, 1, 2, 0.45, 0.35, right, 2, 0.35, 0.45, 0.55, 0.65, 1.091335600009188, 1, 2.000000,64.000000,1.000000,6.000000,0.500000,1.000000
fHuaqm90,100,0, test, 6, 7, 6, 4, 2, 2, 4, 0.65, 0.45, right, 2, 0.35, 0.45, 0.55, 0.65, 0.7398345000110567, 1, 3.000000,65.000000,1.000000,6.000000,0.500000,1.000000
fHuaqm90,100,0, test, 6, 7, 7, 1, 3, 3, 1, 0.35, 0.55, right, 2, 0.35, 0.45, 0.55, 0.65, 4.170893899980001, 0, 3.000000,65.000000,1.000000,6.000000,0.500000,1.000000
fHuaqm90,100,0, test, 6, 7, 8, 4, 2, 2, 4, 0.65, 0.45, right, 2, 0.35, 0.45, 0.55, 0.65, 1.6318474999861792, 1, 4.000000,66.000000,1.000000,6.000000,0.500000,1.000000
fHuaqm90,100,0, test, 6, 7, 9, 4, 1, 4, 1, 0.65, 0.35, left, 1, 0.35, 0.45, 0.55, 0.65, 1.722552000079304, 1, 5.000000,67.000000,1.000000,6.000000,0.500000,1.000000
fHuaqm90,100,0, test, 6, 7, 10, 3, 4, 4, 3, 0.55, 0.65, right, 2, 0.35, 0.45, 0.55, 0.65, 0.7810272000497207, 1, 6.000000,68.000000,1.000000,6.000000,0.500000,1.000000
fHuaqm90,100,0, test, 6, 7, 11, 3, 2, 2, 3, 0.55, 0.45, right, 2, 0.35, 0.45, 0.55, 0.65, 2.4095225000055507, 0, 6.000000,68.000000,1.000000,6.000000,0.500000,1.000000
fHuaqm90,100,0, test, 6, 7, 12, 2, 3, 2, 3, 0.45, 0.55, left, 1, 0.35, 0.45, 0.55, 0.65, 3.1585522000677884, 1, 7.000000,69.000000,1.000000,6.000000,0.500000,1.000000
fHuaqm90,100,0, test, 6, 7, 13, 4, 3, 3, 4, 0.65, 0.55, right, 2, 0.35, 0.45, 0.55, 0.65, 0.752487099962309, 1, 8.000000,70.000000,1.000000,6.000000,0.500000,1.000000
fHuaqm90,100,0, test, 6, 7, 14, 4, 1, 4, 1, 0.65, 0.35, left, 1, 0.35, 0.45, 0.55, 0.65, 1.441115300054662, 1, 9.000000,71.000000,1.000000,6.000000,0.500000,1.000000
fHuaqm90,100,0, test, 6, 7, 15, 3, 1, 1, 3, 0.55, 0.35, right, 2, 0.35, 0.45, 0.55, 0.65, 2.2980776999611408, 0, 9.000000,71.000000,1.000000,6.000000,0.500000,1.000000
fHuaqm90,100,0, test, 6, 7, 16, 2, 4, 2, 4, 0.45, 0.65, left, 1, 0.35, 0.45, 0.55, 0.65, 2.5191228999756277, 1, 10.000000,72.000000,1.000000,6.000000,0.500000,1.000000
fHuaqm90,100,0, test, 6, 7, 17, 3, 4, 4, 3, 0.55, 0.65, right, 2, 0.35, 0.45, 0.55, 0.65, 3.71359499997925, 0, 10.000000,72.000000,1.000000,6.000000,0.500000,1.000000
fHuaqm90,100,0, test, 6, 7, 18, 3, 1, 3, 1, 0.55, 0.35, left, 1, 0.35, 0.45, 0.55, 0.65, 1.2448582999641076, 1, 11.000000,73.000000,1.000000,6.000000,0.500000,1.000000
fHuaqm90,100,0, test, 6, 7, 19, 2, 3, 2, 3, 0.45, 0.55, left, 1, 0.35, 0.45, 0.55, 0.65, 1.5877035000594333, 0, 11.000000,73.000000,1.000000,6.000000,0.500000,1.000000
fHuaqm90,100,0, test, 6, 7, 20, 2, 4, 2, 4, 0.45, 0.65, left, 1, 0.35, 0.45, 0.55, 0.65, 1.2642150999745354, 0, 11.000000,73.000000,1.000000,6.000000,0.500000,1.000000
fHuaqm90,100,0, test, 6, 7, 21, 4, 1, 4, 1, 0.65, 0.35, left, 1, 0.35, 0.45, 0.55, 0.65, 1.9704010999994352, 1, 12.000000,74.000000,1.000000,6.000000,0.500000,1.000000
fHuaqm90,100,0, test, 6, 7, 22, 3, 2, 2, 3, 0.55, 0.45, right, 2, 0.35, 0.45, 0.55, 0.65, 3.5634722999529913, 0, 12.000000,74.000000,1.000000,6.000000,0.500000,1.000000
fHuaqm90,100,0, test, 6, 7, 23, 1, 4, 1, 4, 0.35, 0.65, left, 1, 0.35, 0.45, 0.55, 0.65, 1.1496531999437138, 1, 13.000000,75.000000,1.000000,6.000000,0.500000,1.000000
fHuaqm90,100,0, test, 6, 7, 24, 2, 3, 2, 3, 0.45, 0.55, left, 1, 0.35, 0.45, 0.55, 0.65, 1.5626638000831008, 0, 13.000000,75.000000,1.000000,6.000000,0.500000,1.000000
fHuaqm90,100,0, test, 6, 7, 25, 4, 3, 3, 4, 0.65, 0.55, right, 2, 0.35, 0.45, 0.55, 0.65, 1.648648599977605, 1, 14.000000,76.000000,1.000000,6.000000,0.500000,1.000000
fHuaqm90,100,0, test, 7, 1, 1, 1, 3, 1, 3, 0.35, 0.55, left, 1, 0.35, 0.45, 0.55, 0.65, 0.2795412999112159, 0, 0.000000,76.000000,1.000000,6.000000,0.500000,1.000000
fHuaqm90,100,0, test, 7, 1, 2, 3, 4, 4, 3, 0.55, 0.65, right, 2, 0.35, 0.45, 0.55, 0.65, 0.5337491000536829, 1, 1.000000,77.000000,1.000000,6.000000,0.500000,1.000000
fHuaqm90,100,0, test, 7, 1, 3, 3, 1, 1, 3, 0.55, 0.35, right, 2, 0.35, 0.45, 0.55, 0.65, 0.5562058999203146, 1, 2.000000,78.000000,1.000000,6.000000,0.500000,1.000000
fHuaqm90,100,0, test, 7, 1, 4, 2, 1, 2, 1, 0.45, 0.35, left, 1, 0.35, 0.45, 0.55, 0.65, 0.5708284999709576, 1, 3.000000,79.000000,1.000000,6.000000,0.500000,1.000000
fHuaqm90,100,0, test, 7, 1, 5, 2, 4, 4, 2, 0.45, 0.65, right, 2, 0.35, 0.45, 0.55, 0.65, 0.6246002999832854, 0, 3.000000,79.000000,1.000000,6.000000,0.500000,1.000000
fHuaqm90,100,0, test, 7, 1, 6, 4, 1, 4, 1, 0.65, 0.35, left, 1, 0.35, 0.45, 0.55, 0.65, 0.7136834999546409, 1, 4.000000,80.000000,1.000000,6.000000,0.500000,1.000000
fHuaqm90,100,0, test, 7, 1, 7, 4, 2, 4, 2, 0.65, 0.45, left, 1, 0.35, 0.45, 0.55, 0.65, 0.49301919993013144, 0, 4.000000,80.000000,1.000000,6.000000,0.500000,1.000000
fHuaqm90,100,0, test, 7, 1, 8, 3, 1, 3, 1, 0.55, 0.35, left, 1, 0.35, 0.45, 0.55, 0.65, 1.0277987000299618, 1, 5.000000,81.000000,1.000000,6.000000,0.500000,1.000000
fHuaqm90,100,0, test, 7, 1, 9, 2, 4, 2, 4, 0.45, 0.65, left, 1, 0.35, 0.45, 0.55, 0.65, 1.0616651000455022, 0, 5.000000,81.000000,1.000000,6.000000,0.500000,1.000000
fHuaqm90,100,0, test, 7, 1, 10, 2, 1, 2, 1, 0.45, 0.35, left, 1, 0.35, 0.45, 0.55, 0.65, 0.8232491000089794, 0, 5.000000,81.000000,1.000000,6.000000,0.500000,1.000000
fHuaqm90,100,0, test, 7, 1, 11, 3, 2, 3, 2, 0.55, 0.45, left, 1, 0.35, 0.45, 0.55, 0.65, 0.6645134000573307, 1, 6.000000,82.000000,1.000000,6.000000,0.500000,1.000000
fHuaqm90,100,0, test, 7, 1, 12, 1, 2, 2, 1, 0.35, 0.45, right, 2, 0.35, 0.45, 0.55, 0.65, 0.878558799973689, 0, 6.000000,82.000000,1.000000,6.000000,0.500000,1.000000
fHuaqm90,100,0, test, 7, 1, 13, 1, 3, 1, 3, 0.35, 0.55, left, 1, 0.35, 0.45, 0.55, 0.65, 1.1963663999922574, 1, 7.000000,83.000000,1.000000,6.000000,0.500000,1.000000
fHuaqm90,100,0, test, 7, 1, 14, 3, 2, 3, 2, 0.55, 0.45, left, 1, 0.35, 0.45, 0.55, 0.65, 2.4173975000157952, 0, 7.000000,83.000000,1.000000,6.000000,0.500000,1.000000
fHuaqm90,100,0, test, 7, 1, 15, 3, 1, 1, 3, 0.55, 0.35, right, 2, 0.35, 0.45, 0.55, 0.65, 0.5114959001075476, 1, 8.000000,84.000000,1.000000,6.000000,0.500000,1.000000
fHuaqm90,100,0, test, 7, 1, 16, 4, 1, 1, 4, 0.65, 0.35, right, 2, 0.35, 0.45, 0.55, 0.65, 1.5646428000181913, 1, 9.000000,85.000000,1.000000,6.000000,0.500000,1.000000
fHuaqm90,100,0, test, 7, 1, 17, 3, 2, 3, 2, 0.55, 0.45, left, 1, 0.35, 0.45, 0.55, 0.65, 0.8476045000134036, 1, 10.000000,86.000000,1.000000,6.000000,0.500000,1.000000
fHuaqm90,100,0, test, 7, 1, 18, 3, 1, 1, 3, 0.55, 0.35, right, 2, 0.35, 0.45, 0.55, 0.65, 0.8368215999798849, 1, 11.000000,87.000000,1.000000,6.000000,0.500000,1.000000
fHuaqm90,100,0, test, 7, 1, 19, 4, 1, 1, 4, 0.65, 0.35, right, 2, 0.35, 0.45, 0.55, 0.65, 0.8046051999554038, 0, 11.000000,87.000000,1.000000,6.000000,0.500000,1.000000
fHuaqm90,100,0, test, 7, 1, 20, 3, 1, 3, 1, 0.55, 0.35, left, 1, 0.35, 0.45, 0.55, 0.65, 1.3053356000455096, 1, 12.000000,88.000000,1.000000,6.000000,0.500000,1.000000
fHuaqm90,100,0, test, 7, 1, 21, 3, 4, 4, 3, 0.55, 0.65, right, 2, 0.35, 0.45, 0.55, 0.65, 1.502215199987404, 1, 13.000000,89.000000,1.000000,6.000000,0.500000,1.000000
fHuaqm90,100,0, test, 7, 1, 22, 1, 4, 4, 1, 0.35, 0.65, right, 2, 0.35, 0.45, 0.55, 0.65, 1.3266929999226704, 0, 13.000000,89.000000,1.000000,6.000000,0.500000,1.000000
fHuaqm90,100,0, test, 7, 1, 23, 4, 1, 1, 4, 0.65, 0.35, right, 2, 0.35, 0.45, 0.55, 0.65, 0.6436879000393674, 0, 13.000000,89.000000,1.000000,6.000000,0.500000,1.000000
fHuaqm90,100,0, test, 7, 1, 24, 4, 1, 4, 1, 0.65, 0.35, left, 1, 0.35, 0.45, 0.55, 0.65, 0.9352169999619946, 1, 14.000000,90.000000,1.000000,6.000000,0.500000,1.000000
fHuaqm90,100,0, test, 7, 1, 25, 2, 1, 1, 2, 0.45, 0.35, right, 2, 0.35, 0.45, 0.55, 0.65, 0.7385313000995666, 0, 14.000000,90.000000,1.000000,6.000000,0.500000,1.000000
fHuaqm90,100,0, test, 8, 7, 1, 1, 3, 1, 3, 0.35, 0.55, left, 1, 0.35, 0.45, 0.55, 0.65, 0.817231300054118, 1, 1.000000,91.000000,1.000000,6.000000,0.500000,1.000000
fHuaqm90,100,0, test, 8, 7, 2, 1, 4, 4, 1, 0.35, 0.65, right, 2, 0.35, 0.45, 0.55, 0.65, 0.8446497999830171, 0, 1.000000,91.000000,1.000000,6.000000,0.500000,1.000000
fHuaqm90,100,0, test, 8, 7, 3, 3, 2, 3, 2, 0.55, 0.45, left, 1, 0.35, 0.45, 0.55, 0.65, 0.4663094999268651, 0, 1.000000,91.000000,1.000000,6.000000,0.500000,1.000000
fHuaqm90,100,0, test, 8, 7, 4, 4, 2, 2, 4, 0.65, 0.45, right, 2, 0.35, 0.45, 0.55, 0.65, 1.3378067000303417, 1, 2.000000,92.000000,1.000000,6.000000,0.500000,1.000000
fHuaqm90,100,0, test, 8, 7, 5, 1, 4, 1, 4, 0.35, 0.65, left, 1, 0.35, 0.45, 0.55, 0.65, 1.209214499918744, 1, 3.000000,93.000000,1.000000,6.000000,0.500000,1.000000
fHuaqm90,100,0, test, 8, 7, 6, 2, 4, 4, 2, 0.45, 0.65, right, 2, 0.35, 0.45, 0.55, 0.65, 1.453851299942471, 0, 3.000000,93.000000,1.000000,6.000000,0.500000,1.000000
fHuaqm90,100,0, test, 8, 7, 7, 2, 4, 2, 4, 0.45, 0.65, left, 1, 0.35, 0.45, 0.55, 0.65, 1.2445700999815017, 1, 4.000000,94.000000,1.000000,6.000000,0.500000,1.000000
fHuaqm90,100,0, test, 8, 7, 8, 3, 4, 4, 3, 0.55, 0.65, right, 2, 0.35, 0.45, 0.55, 0.65, 0.8791040000505745, 1, 5.000000,95.000000,1.000000,6.000000,0.500000,1.000000
fHuaqm90,100,0, test, 8, 7, 9, 3, 4, 4, 3, 0.55, 0.65, right, 2, 0.35, 0.45, 0.55, 0.65, 0.6822373999748379, 1, 6.000000,96.000000,1.000000,6.000000,0.500000,1.000000
fHuaqm90,100,0, test, 8, 7, 10, 1, 2, 2, 1, 0.35, 0.45, right, 2, 0.35, 0.45, 0.55, 0.65, 1.1015067999251187, 0, 6.000000,96.000000,1.000000,6.000000,0.500000,1.000000
fHuaqm90,100,0, test, 8, 7, 11, 2, 1, 1, 2, 0.45, 0.35, right, 2, 0.35, 0.45, 0.55, 0.65, 4.053535499959253, 0, 6.000000,96.000000,1.000000,6.000000,0.500000,1.000000
fHuaqm90,100,0, test, 8, 7, 12, 4, 3, 3, 4, 0.65, 0.55, right, 2, 0.35, 0.45, 0.55, 0.65, 1.0031772999791428, 1, 7.000000,97.000000,1.000000,6.000000,0.500000,1.000000
fHuaqm90,100,0, test, 8, 7, 13, 4, 2, 2, 4, 0.65, 0.45, right, 2, 0.35, 0.45, 0.55, 0.65, 0.876820300007239, 1, 8.000000,98.000000,1.000000,6.000000,0.500000,1.000000
fHuaqm90,100,0, test, 8, 7, 14, 4, 1, 1, 4, 0.65, 0.35, right, 2, 0.35, 0.45, 0.55, 0.65, 1.3308355000335723, 1, 9.000000,99.000000,1.000000,6.000000,0.500000,1.000000
fHuaqm90,100,0, test, 8, 7, 15, 3, 2, 3, 2, 0.55, 0.45, left, 1, 0.35, 0.45, 0.55, 0.65, 1.4862279000226408, 1, 10.000000,100.000000,1.000000,6.000000,0.500000,1.000000
fHuaqm90,100,0, test, 8, 7, 16, 3, 2, 3, 2, 0.55, 0.45, left, 1, 0.35, 0.45, 0.55, 0.65, 1.4185259999940172, 1, 11.000000,101.000000,1.000000,6.000000,0.500000,1.000000
fHuaqm90,100,0, test, 8, 7, 17, 3, 4, 4, 3, 0.55, 0.65, right, 2, 0.35, 0.45, 0.55, 0.65, 1.9995889998972416, 0, 11.000000,101.000000,1.000000,6.000000,0.500000,1.000000
fHuaqm90,100,0, test, 8, 7, 18, 2, 4, 4, 2, 0.45, 0.65, right, 2, 0.35, 0.45, 0.55, 0.65, 5.050478599965572, 0, 11.000000,101.000000,1.000000,6.000000,0.500000,1.000000
fHuaqm90,100,0, test, 8, 7, 19, 4, 2, 4, 2, 0.65, 0.45, left, 1, 0.35, 0.45, 0.55, 0.65, 1.3409210999961942, 0, 11.000000,101.000000,1.000000,6.000000,0.500000,1.000000
fHuaqm90,100,0, test, 8, 7, 20, 3, 4, 4, 3, 0.55, 0.65, right, 2, 0.35, 0.45, 0.55, 0.65, 1.6414102000417188, 0, 11.000000,101.000000,1.000000,6.000000,0.500000,1.000000
fHuaqm90,100,0, test, 8, 7, 21, 1, 4, 1, 4, 0.35, 0.65, left, 1, 0.35, 0.45, 0.55, 0.65, 0.0015346999280154705, 0, 11.000000,101.000000,1.000000,6.000000,0.500000,1.000000
fHuaqm90,100,0, test, 8, 7, 22, 3, 4, 4, 3, 0.55, 0.65, right, 2, 0.35, 0.45, 0.55, 0.65, 2.1854450000682846, 1, 12.000000,102.000000,1.000000,6.000000,0.500000,1.000000
fHuaqm90,100,0, test, 8, 7, 23, 3, 1, 1, 3, 0.55, 0.35, right, 2, 0.35, 0.45, 0.55, 0.65, 0.5618666000664234, 1, 13.000000,103.000000,1.000000,6.000000,0.500000,1.000000
fHuaqm90,100,0, test, 8, 7, 24, 2, 3, 3, 2, 0.45, 0.55, right, 2, 0.35, 0.45, 0.55, 0.65, 0.8337496999884024, 0, 13.000000,103.000000,1.000000,6.000000,0.500000,1.000000
fHuaqm90,100,0, test, 8, 7, 25, 3, 2, 2, 3, 0.55, 0.45, right, 2, 0.35, 0.45, 0.55, 0.65, 1.1919228000333533, 1, 14.000000,104.000000,1.000000,6.000000,0.500000,1.000000
