ShaharID, group, counterbalance, block_type, block, delay_condition, trial, chosen, unchosen, offer_left_image, offer_right_image, exp_value_chosen, exp_value_unchosen, choice_location, choice_key, exp_value1, exp_value2, exp_value3, exp_value4, RT, reward, coins_per_block, coins_per_task,ITI_duration,rt_deadline,choice_feedback_duration,outcome_duration
CC8G8AWv,200,0, practice, 1, 1, 1, 4, 3, 4, 3, 0.65, 0.55, left, 1, 0.35, 0.45, 0.55, 0.65, 3.2495281998999417, 1, 1.000000,1.000000,1.000000,6.000000,0.500000,1.000000
CC8G8AWv,200,0, practice, 1, 1, 2, 4, 2, 2, 4, 0.65, 0.45, right, 2, 0.35, 0.45, 0.55, 0.65, 1.0956147001124918, 0, 1.000000,1.000000,1.000000,6.000000,0.500000,1.000000
CC8G8AWv,200,0, practice, 1, 1, 3, 1, 4, 1, 4, 0.35, 0.65, left, 1, 0.35, 0.45, 0.55, 0.65, 1.3732660999521613, 1, 2.000000,2.000000,1.000000,6.000000,0.500000,1.000000
CC8G8AWv,200,0, practice, 1, 1, 4, 1, 4, 1, 4, 0.35, 0.65, left, 1, 0.35, 0.45, 0.55, 0.65, 1.6963272999273613, 1, 3.000000,3.000000,1.000000,6.000000,0.500000,1.000000
CC8G8AWv,200,0, practice, 1, 1, 5, 4, 2, 4, 2, 0.65, 0.45, left, 1, 0.35, 0.45, 0.55, 0.65, 1.1487888999981806, 0, 3.000000,3.000000,1.000000,6.000000,0.500000,1.000000
CC8G8AWv,200,0, test, 1, 1, 1, 2, 3, 2, 3, 0.45, 0.55, left, 1, 0.35, 0.45, 0.55, 0.65, 1.1506712000118569, 1, 1.000000,4.000000,1.000000,6.000000,0.500000,1.000000
CC8G8AWv,200,0, test, 1, 1, 2, 1, 3, 3, 1, 0.35, 0.55, right, 2, 0.35, 0.45, 0.55, 0.65, 4.849447899963707, 0, 1.000000,4.000000,1.000000,6.000000,0.500000,1.000000
CC8G8AWv,200,0, test, 1, 1, 3, 2, 1, 1, 2, 0.45, 0.35, right, 2, 0.35, 0.45, 0.55, 0.65, 1.2555736999493092, 1, 2.000000,5.000000,1.000000,6.000000,0.500000,1.000000
CC8G8AWv,200,0, test, 1, 1, 4, 3, 4, 3, 4, 0.55, 0.65, left, 1, 0.35, 0.45, 0.55, 0.65, 4.8373295000055805, 0, 2.000000,5.000000,1.000000,6.000000,0.500000,1.000000
CC8G8AWv,200,0, test, 1, 1, 5, 2, 1, 1, 2, 0.45, 0.35, right, 2, 0.35, 0.45, 0.55, 0.65, 0.8952539999736473, 1, 3.000000,6.000000,1.000000,6.000000,0.500000,1.000000
CC8G8AWv,200,0, test, 1, 1, 6, 4, 1, 4, 1, 0.65, 0.35, left, 1, 0.35, 0.45, 0.55, 0.65, 2.1479159999871626, 1, 4.000000,7.000000,1.000000,6.000000,0.500000,1.000000
CC8G8AWv,200,0, test, 1, 1, 7, 4, 3, 4, 3, 0.65, 0.55, left, 1, 0.35, 0.45, 0.55, 0.65, 1.6419435000279918, 0, 4.000000,7.000000,1.000000,6.000000,0.500000,1.000000
CC8G8AWv,200,0, test, 1, 1, 8, 2, 3, 3, 2, 0.45, 0.55, right, 2, 0.35, 0.45, 0.55, 0.65, 1.025232599931769, 0, 4.000000,7.000000,1.000000,6.000000,0.500000,1.000000
CC8G8AWv,200,0, test, 1, 1, 9, 3, 2, 3, 2, 0.55, 0.45, left, 1, 0.35, 0.45, 0.55, 0.65, 1.9931909000733867, 0, 4.000000,7.000000,1.000000,6.000000,0.500000,1.000000
CC8G8AWv,200,0, test, 1, 1, 10, 2, 3, 3, 2, 0.45, 0.55, right, 2, 0.35, 0.45, 0.55, 0.65, 0.710556700010784, 0, 4.000000,7.000000,1.000000,6.000000,0.500000,1.000000
CC8G8AWv,200,0, test, 1, 1, 11, 4, 1, 1, 4, 0.65, 0.35, right, 2, 0.35, 0.45, 0.55, 0.65, 5.351379100000486, 1, 5.000000,8.000000,1.000000,6.000000,0.500000,1.000000
CC8G8AWv,200,0, test, 1, 1, 12, 3, 1, 3, 1, 0.55, 0.35, left, 1, 0.35, 0.45, 0.55, 0.65, 3.8698928999947384, 1, 6.000000,9.000000,1.000000,6.000000,0.500000,1.000000
CC8G8AWv,200,0, test, 1, 1, 13, 2, 4, 2, 4, 0.45, 0.65, left, 1, 0.35, 0.45, 0.55, 0.65, 1.936000700108707, 1, 7.000000,10.000000,1.000000,6.000000,0.500000,1.000000
CC8G8AWv,200,0, test, 1, 1, 14, 3, 1, 3, 1, 0.55, 0.35, left, 1, 0.35, 0.45, 0.55, 0.65, 1.0833419000264257, 0, 7.000000,10.000000,1.000000,6.000000,0.500000,1.000000
CC8G8AWv,200,0, test, 1, 1, 15, 2, 4, 4, 2, 0.45, 0.65, right, 2, 0.35, 0.45, 0.55, 0.65, 2.603924100054428, 0, 7.000000,10.000000,1.000000,6.000000,0.500000,1.000000
CC8G8AWv,200,0, test, 1, 1, 16, 2, 3, 3, 2, 0.45, 0.55, right, 2, 0.35, 0.45, 0.55, 0.65, 1.956617199932225, 1, 8.000000,11.000000,1.000000,6.000000,0.500000,1.000000
CC8G8AWv,200,0, test, 1, 1, 17, 2, 1, 2, 1, 0.45, 0.35, left, 1, 0.35, 0.45, 0.55, 0.65, 1.003218499943614, 0, 8.000000,11.000000,1.000000,6.000000,0.500000,1.000000
CC8G8AWv,200,0, test, 1, 1, 18, 4, 3, 3, 4, 0.65, 0.55, right, 2, 0.35, 0.45, 0.55, 0.65, 1.9710557999787852, 0, 8.000000,11.000000,1.000000,6.000000,0.500000,1.000000
CC8G8AWv,200,0, test, 1, 1, 19, 2, 1, 2, 1, 0.45, 0.35, left, 1, 0.35, 0.45, 0.55, 0.65, 0.637148299952969, 1, 9.000000,12.000000,1.000000,6.000000,0.500000,1.000000
CC8G8AWv,200,0, test, 1, 1, 20, 4, 1, 4, 1, 0.65, 0.35, left, 1, 0.35, 0.45, 0.55, 0.65, 2.4003781001083553, 1, 10.000000,13.000000,1.000000,6.000000,0.500000,1.000000
CC8G8AWv,200,0, test, 1, 1, 21, 2, 4, 4, 2, 0.45, 0.65, right, 2, 0.35, 0.45, 0.55, 0.65, 3.5570977999595925, 0, 10.000000,13.000000,1.000000,6.000000,0.500000,1.000000
CC8G8AWv,200,0, test, 1, 1, 22, 4, 2, 4, 2, 0.65, 0.45, left, 1, 0.35, 0.45, 0.55, 0.65, 0.8678244999609888, 0, 10.000000,13.000000,1.000000,6.000000,0.500000,1.000000
CC8G8AWv,200,0, test, 1, 1, 23, 4, 3, 4, 3, 0.65, 0.55, left, 1, 0.35, 0.45, 0.55, 0.65, 1.9457593000261113, 1, 11.000000,14.000000,1.000000,6.000000,0.500000,1.000000
CC8G8AWv,200,0, test, 1, 1, 24, 1, 4, 1, 4, 0.35, 0.65, left, 1, 0.35, 0.45, 0.55, 0.65, 2.6691469999495894, 0, 11.000000,14.000000,1.000000,6.000000,0.500000,1.000000
CC8G8AWv,200,0, test, 1, 1, 25, 4, 1, 4, 1, 0.65, 0.35, left, 1, 0.35, 0.45, 0.55, 0.65, 1.0110041999723762, 0, 11.000000,14.000000,1.000000,6.000000,0.500000,1.000000
CC8G8AWv,200,0, test, 2, 7, 1, 4, 1, 4, 1, 0.65, 0.35, left, 1, 0.35, 0.45, 0.55, 0.65, 2.698873499990441, 1, 1.000000,15.000000,1.000000,6.000000,0.500000,1.000000
CC8G8AWv,200,0, test, 2, 7, 2, 2, 3, 3, 2, 0.45, 0.55, right, 2, 0.35, 0.45, 0.55, 0.65, 3.571000299998559, 0, 1.000000,15.000000,1.000000,6.000000,0.500000,1.000000
CC8G8AWv,200,0, test, 2, 7, 3, 3, 2, 3, 2, 0.55, 0.45, left, 1, 0.35, 0.45, 0.55, 0.65, 2.796799200004898, 1, 2.000000,16.000000,1.000000,6.000000,0.500000,1.000000
CC8G8AWv,200,0, test, 2, 7, 4, 1, 4, 1, 4, 0.35, 0.65, left, 1, 0.35, 0.45, 0.55, 0.65, 3.941571500035934, 1, 3.000000,17.000000,1.000000,6.000000,0.500000,1.000000
CC8G8AWv,200,0, test, 2, 7, 5, 1, 4, 4, 1, 0.35, 0.65, right, 2, 0.35, 0.45, 0.55, 0.65, 1.5716164000332355, 1, 4.000000,18.000000,1.000000,6.000000,0.500000,1.000000
CC8G8AWv,200,0, test, 2, 7, 6, 2, 1, 1, 2, 0.45, 0.35, right, 2, 0.35, 0.45, 0.55, 0.65, 2.4776328000007197, 1, 5.000000,19.000000,1.000000,6.000000,0.500000,1.000000
CC8G8AWv,200,0, test, 2, 7, 7, 2, 1, 2, 1, 0.45, 0.35, left, 1, 0.35, 0.45, 0.55, 0.65, 0.8233821999747306, 0, 5.000000,19.000000,1.000000,6.000000,0.500000,1.000000
CC8G8AWv,200,0, test, 2, 7, 8, 1, 4, 1, 4, 0.35, 0.65, left, 1, 0.35, 0.45, 0.55, 0.65, 0.9474981999956071, 1, 6.000000,20.000000,1.000000,6.000000,0.500000,1.000000
CC8G8AWv,200,0, test, 2, 7, 9, 3, 1, 3, 1, 0.55, 0.35, left, 1, 0.35, 0.45, 0.55, 0.65, 3.506086300010793, 0, 6.000000,20.000000,1.000000,6.000000,0.500000,1.000000
CC8G8AWv,200,0, test, 2, 7, 10, 3, 4, 4, 3, 0.55, 0.65, right, 2, 0.35, 0.45, 0.55, 0.65, 4.746787299984135, 1, 7.000000,21.000000,1.000000,6.000000,0.500000,1.000000
CC8G8AWv,200,0, test, 2, 7, 11, 3, 4, 3, 4, 0.55, 0.65, left, 1, 0.35, 0.45, 0.55, 0.65, 1.3800026000244543, 1, 8.000000,22.000000,1.000000,6.000000,0.500000,1.000000
CC8G8AWv,200,0, test, 2, 7, 12, 3, 4, 4, 3, 0.55, 0.65, right, 2, 0.35, 0.45, 0.55, 0.65, 1.261235700105317, 0, 8.000000,22.000000,1.000000,6.000000,0.500000,1.000000
CC8G8AWv,200,0, test, 2, 7, 13, 2, 4, 2, 4, 0.45, 0.65, left, 1, 0.35, 0.45, 0.55, 0.65, 1.7880354999797419, 1, 9.000000,23.000000,1.000000,6.000000,0.500000,1.000000
CC8G8AWv,200,0, test, 2, 7, 14, 3, 1, 1, 3, 0.55, 0.35, right, 2, 0.35, 0.45, 0.55, 0.65, 4.36125269997865, 1, 10.000000,24.000000,1.000000,6.000000,0.500000,1.000000
CC8G8AWv,200,0, test, 2, 7, 15, 2, 4, 4, 2, 0.45, 0.65, right, 2, 0.35, 0.45, 0.55, 0.65, 2.2407545000314713, 1, 11.000000,25.000000,1.000000,6.000000,0.500000,1.000000
CC8G8AWv,200,0, test, 2, 7, 16, 3, 1, 1, 3, 0.55, 0.35, right, 2, 0.35, 0.45, 0.55, 0.65, 0.7586560999043286, 1, 12.000000,26.000000,1.000000,6.000000,0.500000,1.000000
CC8G8AWv,200,0, test, 2, 7, 17, 4, 1, 4, 1, 0.65, 0.35, left, 1, 0.35, 0.45, 0.55, 0.65, 3.3410687999567017, 0, 12.000000,26.000000,1.000000,6.000000,0.500000,1.000000
CC8G8AWv,200,0, test, 2, 7, 18, 1, 4, 1, 4, 0.35, 0.65, left, 1, 0.35, 0.45, 0.55, 0.65, 0.8044017000356689, 0, 12.000000,26.000000,1.000000,6.000000,0.500000,1.000000
CC8G8AWv,200,0, test, 2, 7, 19, 2, 1, 2, 1, 0.45, 0.35, left, 1, 0.35, 0.45, 0.55, 0.65, 4.9491712000453845, 1, 13.000000,27.000000,1.000000,6.000000,0.500000,1.000000
CC8G8AWv,200,0, test, 2, 7, 20, 2, 3, 3, 2, 0.45, 0.55, right, 2, 0.35, 0.45, 0.55, 0.65, 3.878397599910386, 0, 13.000000,27.000000,1.000000,6.000000,0.500000,1.000000
CC8G8AWv,200,0, test, 2, 7, 21, 4, 1, 4, 1, 0.65, 0.35, left, 1, 0.35, 0.45, 0.55, 0.65, 2.557088500005193, 1, 14.000000,28.000000,1.000000,6.000000,0.500000,1.000000
CC8G8AWv,200,0, test, 2, 7, 22, 3, 4, 3, 4, 0.55, 0.65, left, 1, 0.35, 0.45, 0.55, 0.65, 3.2037052999949083, 1, 15.000000,29.000000,1.000000,6.000000,0.500000,1.000000
CC8G8AWv,200,0, test, 2, 7, 23, 2, 1, 1, 2, 0.45, 0.35, right, 2, 0.35, 0.45, 0.55, 0.65, 4.544301899964921, 1, 16.000000,30.000000,1.000000,6.000000,0.500000,1.000000
CC8G8AWv,200,0, test, 2, 7, 24, 2, 4, 2, 4, 0.45, 0.65, left, 1, 0.35, 0.45, 0.55, 0.65, 3.3077117000939324, 0, 16.000000,30.000000,1.000000,6.000000,0.500000,1.000000
CC8G8AWv,200,0, test, 2, 7, 25, 2, 4, 2, 4, 0.45, 0.65, left, 1, 0.35, 0.45, 0.55, 0.65, 2.232249299995601, 0, 16.000000,30.000000,1.000000,6.000000,0.500000,1.000000
CC8G8AWv,200,0, test, 3, 1, 1, 4, 1, 4, 1, 0.65, 0.35, left, 1, 0.35, 0.45, 0.55, 0.65, 0.27424910000991076, 1, 1.000000,31.000000,1.000000,6.000000,0.500000,1.000000
CC8G8AWv,200,0, test, 3, 1, 2, 2, 1, 2, 1, 0.45, 0.35, left, 1, 0.35, 0.45, 0.55, 0.65, 2.119781600078568, 1, 2.000000,32.000000,1.000000,6.000000,0.500000,1.000000
CC8G8AWv,200,0, test, 3, 1, 3, 4, 3, 4, 3, 0.65, 0.55, left, 1, 0.35, 0.45, 0.55, 0.65, 1.3434949999209493, 0, 2.000000,32.000000,1.000000,6.000000,0.500000,1.000000
CC8G8AWv,200,0, test, 3, 1, 4, 2, 1, 1, 2, 0.45, 0.35, right, 2, 0.35, 0.45, 0.55, 0.65, 1.6268259000498801, 1, 3.000000,33.000000,1.000000,6.000000,0.500000,1.000000
CC8G8AWv,200,0, test, 3, 1, 5, 2, 1, 2, 1, 0.45, 0.35, left, 1, 0.35, 0.45, 0.55, 0.65, 1.0021573000121862, 0, 3.000000,33.000000,1.000000,6.000000,0.500000,1.000000
CC8G8AWv,200,0, test, 3, 1, 6, 4, 2, 4, 2, 0.65, 0.45, left, 1, 0.35, 0.45, 0.55, 0.65, 1.494143299991265, 0, 3.000000,33.000000,1.000000,6.000000,0.500000,1.000000
CC8G8AWv,200,0, test, 3, 1, 7, 2, 4, 2, 4, 0.45, 0.65, left, 1, 0.35, 0.45, 0.55, 0.65, 0.9553299999097362, 0, 3.000000,33.000000,1.000000,6.000000,0.500000,1.000000
CC8G8AWv,200,0, test, 3, 1, 8, 2, 1, 1, 2, 0.45, 0.35, right, 2, 0.35, 0.45, 0.55, 0.65, 2.8935904999962077, 0, 3.000000,33.000000,1.000000,6.000000,0.500000,1.000000
CC8G8AWv,200,0, test, 3, 1, 9, 3, 1, 1, 3, 0.55, 0.35, right, 2, 0.35, 0.45, 0.55, 0.65, 1.4180824999930337, 1, 4.000000,34.000000,1.000000,6.000000,0.500000,1.000000
CC8G8AWv,200,0, test, 3, 1, 10, 4, 3, 4, 3, 0.65, 0.55, left, 1, 0.35, 0.45, 0.55, 0.65, 3.6060611000284553, 0, 4.000000,34.000000,1.000000,6.000000,0.500000,1.000000
CC8G8AWv,200,0, test, 3, 1, 11, 1, 2, 2, 1, 0.35, 0.45, right, 2, 0.35, 0.45, 0.55, 0.65, 1.0741872999351472, 0, 4.000000,34.000000,1.000000,6.000000,0.500000,1.000000
CC8G8AWv,200,0, test, 3, 1, 12, 3, 1, 3, 1, 0.55, 0.35, left, 1, 0.35, 0.45, 0.55, 0.65, 1.4319754000753164, 1, 5.000000,35.000000,1.000000,6.000000,0.500000,1.000000
CC8G8AWv,200,0, test, 3, 1, 13, 1, 2, 2, 1, 0.35, 0.45, right, 2, 0.35, 0.45, 0.55, 0.65, 1.5226968000642955, 0, 5.000000,35.000000,1.000000,6.000000,0.500000,1.000000
CC8G8AWv,200,0, test, 3, 1, 14, 3, 2, 2, 3, 0.55, 0.45, right, 2, 0.35, 0.45, 0.55, 0.65, 1.4986345999641344, 0, 5.000000,35.000000,1.000000,6.000000,0.500000,1.000000
CC8G8AWv,200,0, test, 3, 1, 15, 3, 4, 3, 4, 0.55, 0.65, left, 1, 0.35, 0.45, 0.55, 0.65, 2.043277099961415, 1, 6.000000,36.000000,1.000000,6.000000,0.500000,1.000000
CC8G8AWv,200,0, test, 3, 1, 16, 4, 1, 1, 4, 0.65, 0.35, right, 2, 0.35, 0.45, 0.55, 0.65, 1.0066358000040054, 1, 7.000000,37.000000,1.000000,6.000000,0.500000,1.000000
CC8G8AWv,200,0, test, 3, 1, 17, 3, 1, 3, 1, 0.55, 0.35, left, 1, 0.35, 0.45, 0.55, 0.65, 4.083330799941905, 0, 7.000000,37.000000,1.000000,6.000000,0.500000,1.000000
CC8G8AWv,200,0, test, 3, 1, 18, 4, 1, 4, 1, 0.65, 0.35, left, 1, 0.35, 0.45, 0.55, 0.65, 0.8958206999814138, 0, 7.000000,37.000000,1.000000,6.000000,0.500000,1.000000
CC8G8AWv,200,0, test, 3, 1, 19, 2, 4, 2, 4, 0.45, 0.65, left, 1, 0.35, 0.45, 0.55, 0.65, 2.1006196999223903, 0, 7.000000,37.000000,1.000000,6.000000,0.500000,1.000000
CC8G8AWv,200,0, test, 3, 1, 20, 4, 2, 4, 2, 0.65, 0.45, left, 1, 0.35, 0.45, 0.55, 0.65, 1.1851904999930412, 1, 8.000000,38.000000,1.000000,6.000000,0.500000,1.000000
CC8G8AWv,200,0, test, 3, 1, 21
CC8G8AWv,200,0, test, 3, 1, 22, 4, 1, 1, 4, 0.65, 0.35, right, 2, 0.35, 0.45, 0.55, 0.65, 2.4525093000847846, 1, 9.000000,39.000000,1.000000,6.000000,0.500000,1.000000
CC8G8AWv,200,0, test, 3, 1, 23, 4, 1, 1, 4, 0.65, 0.35, right, 2, 0.35, 0.45, 0.55, 0.65, 0.5270327999023721, 1, 10.000000,40.000000,1.000000,6.000000,0.500000,1.000000
CC8G8AWv,200,0, test, 3, 1, 24, 4, 1, 1, 4, 0.65, 0.35, right, 2, 0.35, 0.45, 0.55, 0.65, 0.40317209996283054, 1, 11.000000,41.000000,1.000000,6.000000,0.500000,1.000000
CC8G8AWv,200,0, test, 3, 1, 25, 2, 4, 2, 4, 0.45, 0.65, left, 1, 0.35, 0.45, 0.55, 0.65, 1.5560489000054076, 1, 12.000000,42.000000,1.000000,6.000000,0.500000,1.000000
CC8G8AWv,200,0, test, 4, 7, 1, 1, 3, 3, 1, 0.35, 0.55, right, 2, 0.35, 0.45, 0.55, 0.65, 1.8206120999529958, 1, 1.000000,43.000000,1.000000,6.000000,0.500000,1.000000
CC8G8AWv,200,0, test, 4, 7, 2, 1, 3, 3, 1, 0.35, 0.55, right, 2, 0.35, 0.45, 0.55, 0.65, 3.2557815000182018, 0, 1.000000,43.000000,1.000000,6.000000,0.500000,1.000000
CC8G8AWv,200,0, test, 4, 7, 3, 3, 4, 3, 4, 0.55, 0.65, left, 1, 0.35, 0.45, 0.55, 0.65, 0.9464356999378651, 0, 1.000000,43.000000,1.000000,6.000000,0.500000,1.000000
CC8G8AWv,200,0, test, 4, 7, 4, 1, 2, 1, 2, 0.35, 0.45, left, 1, 0.35, 0.45, 0.55, 0.65, 1.3284573999699205, 1, 2.000000,44.000000,1.000000,6.000000,0.500000,1.000000
CC8G8AWv,200,0, test, 4, 7, 5, 1, 2, 1, 2, 0.35, 0.45, left, 1, 0.35, 0.45, 0.55, 0.65, 0.556408500066027, 1, 3.000000,45.000000,1.000000,6.000000,0.500000,1.000000
CC8G8AWv,200,0, test, 4, 7, 6, 1, 2, 2, 1, 0.35, 0.45, right, 2, 0.35, 0.45, 0.55, 0.65, 1.1910532000474632, 0, 3.000000,45.000000,1.000000,6.000000,0.500000,1.000000
CC8G8AWv,200,0, test, 4, 7, 7, 3, 1, 3, 1, 0.55, 0.35, left, 1, 0.35, 0.45, 0.55, 0.65, 0.9362922000000253, 1, 4.000000,46.000000,1.000000,6.000000,0.500000,1.000000
CC8G8AWv,200,0, test, 4, 7, 8, 4, 2, 2, 4, 0.65, 0.45, right, 2, 0.35, 0.45, 0.55, 0.65, 2.6037378000328317, 1, 5.000000,47.000000,1.000000,6.000000,0.500000,1.000000
CC8G8AWv,200,0, test, 4, 7, 9, 1, 4, 1, 4, 0.35, 0.65, left, 1, 0.35, 0.45, 0.55, 0.65, 1.9123682000208646, 1, 6.000000,48.000000,1.000000,6.000000,0.500000,1.000000
CC8G8AWv,200,0, test, 4, 7, 10, 4, 2, 4, 2, 0.65, 0.45, left, 1, 0.35, 0.45, 0.55, 0.65, 1.0528905000537634, 0, 6.000000,48.000000,1.000000,6.000000,0.500000,1.000000
CC8G8AWv,200,0, test, 4, 7, 11, 3, 1, 3, 1, 0.55, 0.35, left, 1, 0.35, 0.45, 0.55, 0.65, 0.9554590999614447, 1, 7.000000,49.000000,1.000000,6.000000,0.500000,1.000000
CC8G8AWv,200,0, test, 4, 7, 12, 3, 1, 3, 1, 0.55, 0.35, left, 1, 0.35, 0.45, 0.55, 0.65, 0.5262538000242785, 1, 8.000000,50.000000,1.000000,6.000000,0.500000,1.000000
CC8G8AWv,200,0, test, 4, 7, 13, 1, 4, 4, 1, 0.35, 0.65, right, 2, 0.35, 0.45, 0.55, 0.65, 2.3815832999534905, 0, 8.000000,50.000000,1.000000,6.000000,0.500000,1.000000
CC8G8AWv,200,0, test, 4, 7, 14, 3, 2, 2, 3, 0.55, 0.45, right, 2, 0.35, 0.45, 0.55, 0.65, 2.338810099987313, 1, 9.000000,51.000000,1.000000,6.000000,0.500000,1.000000
CC8G8AWv,200,0, test, 4, 7, 15, 1, 4, 4, 1, 0.35, 0.65, right, 2, 0.35, 0.45, 0.55, 0.65, 1.7180918999947608, 0, 9.000000,51.000000,1.000000,6.000000,0.500000,1.000000
CC8G8AWv,200,0, test, 4, 7, 16, 4, 2, 4, 2, 0.65, 0.45, left, 1, 0.35, 0.45, 0.55, 0.65, 1.429107500007376, 1, 10.000000,52.000000,1.000000,6.000000,0.500000,1.000000
CC8G8AWv,200,0, test, 4, 7, 17, 3, 1, 3, 1, 0.55, 0.35, left, 1, 0.35, 0.45, 0.55, 0.65, 0.7693875000113621, 1, 11.000000,53.000000,1.000000,6.000000,0.500000,1.000000
CC8G8AWv,200,0, test, 4, 7, 18, 1, 2, 2, 1, 0.35, 0.45, right, 2, 0.35, 0.45, 0.55, 0.65, 3.204871599911712, 0, 11.000000,53.000000,1.000000,6.000000,0.500000,1.000000
CC8G8AWv,200,0, test, 4, 7, 19, 3, 2, 3, 2, 0.55, 0.45, left, 1, 0.35, 0.45, 0.55, 0.65, 1.220663300016895, 1, 12.000000,54.000000,1.000000,6.000000,0.500000,1.000000
CC8G8AWv,200,0, test, 4, 7, 20, 1, 4, 1, 4, 0.35, 0.65, left, 1, 0.35, 0.45, 0.55, 0.65, 1.6606132000451908, 0, 12.000000,54.000000,1.000000,6.000000,0.500000,1.000000
CC8G8AWv,200,0, test, 4, 7, 21, 3, 1, 1, 3, 0.55, 0.35, right, 2, 0.35, 0.45, 0.55, 0.65, 0.9265116000315174, 1, 13.000000,55.000000,1.000000,6.000000,0.500000,1.000000
CC8G8AWv,200,0, test, 4, 7, 22, 3, 1, 3, 1, 0.55, 0.35, left, 1, 0.35, 0.45, 0.55, 0.65, 1.241874699946493, 0, 13.000000,55.000000,1.000000,6.000000,0.500000,1.000000
CC8G8AWv,200,0, test, 4, 7, 23, 4, 1, 4, 1, 0.65, 0.35, left, 1, 0.35, 0.45, 0.55, 0.65, 2.741254199994728, 1, 14.000000,56.000000,1.000000,6.000000,0.500000,1.000000
CC8G8AWv,200,0, test, 4, 7, 24, 4, 1, 1, 4, 0.65, 0.35, right, 2, 0.35, 0.45, 0.55, 0.65, 0.664483799948357, 0, 14.000000,56.000000,1.000000,6.000000,0.500000,1.000000
CC8G8AWv,200,0, test, 4, 7, 25, 1, 2, 1, 2, 0.35, 0.45, left, 1, 0.35, 0.45, 0.55, 0.65, 1.4298642000649124, 1, 15.000000,57.000000,1.000000,6.000000,0.500000,1.000000
CC8G8AWv,200,0, test, 5, 1, 1, 3, 4, 4, 3, 0.55, 0.65, right, 2, 0.35, 0.45, 0.55, 0.65, 1.5039517000550404, 0, 0.000000,57.000000,1.000000,6.000000,0.500000,1.000000
CC8G8AWv,200,0, test, 5, 1, 2, 4, 2, 4, 2, 0.65, 0.45, left, 1, 0.35, 0.45, 0.55, 0.65, 1.948497899924405, 0, 0.000000,57.000000,1.000000,6.000000,0.500000,1.000000
CC8G8AWv,200,0, test, 5, 1, 3, 4, 1, 4, 1, 0.65, 0.35, left, 1, 0.35, 0.45, 0.55, 0.65, 0.9431437000166625, 0, 0.000000,57.000000,1.000000,6.000000,0.500000,1.000000
CC8G8AWv,200,0, test, 5, 1, 4, 2, 3, 3, 2, 0.45, 0.55, right, 2, 0.35, 0.45, 0.55, 0.65, 1.0024388999445364, 1, 1.000000,58.000000,1.000000,6.000000,0.500000,1.000000
CC8G8AWv,200,0, test, 5, 1, 5, 1, 4, 1, 4, 0.35, 0.65, left, 1, 0.35, 0.45, 0.55, 0.65, 1.3551138000329956, 1, 2.000000,59.000000,1.000000,6.000000,0.500000,1.000000
CC8G8AWv,200,0, test, 5, 1, 6, 2, 4, 2, 4, 0.45, 0.65, left, 1, 0.35, 0.45, 0.55, 0.65, 1.5857477000681683, 0, 2.000000,59.000000,1.000000,6.000000,0.500000,1.000000
CC8G8AWv,200,0, test, 5, 1, 7, 2, 4, 4, 2, 0.45, 0.65, right, 2, 0.35, 0.45, 0.55, 0.65, 1.5029712999239564, 1, 3.000000,60.000000,1.000000,6.000000,0.500000,1.000000
CC8G8AWv,200,0, test, 5, 1, 8, 2, 4, 2, 4, 0.45, 0.65, left, 1, 0.35, 0.45, 0.55, 0.65, 1.3029511000495404, 0, 3.000000,60.000000,1.000000,6.000000,0.500000,1.000000
CC8G8AWv,200,0, test, 5, 1, 9, 2, 1, 2, 1, 0.45, 0.35, left, 1, 0.35, 0.45, 0.55, 0.65, 0.7837993000866845, 0, 3.000000,60.000000,1.000000,6.000000,0.500000,1.000000
CC8G8AWv,200,0, test, 5, 1, 10, 3, 2, 2, 3, 0.55, 0.45, right, 2, 0.35, 0.45, 0.55, 0.65, 0.9129440999822691, 0, 3.000000,60.000000,1.000000,6.000000,0.500000,1.000000
CC8G8AWv,200,0, test, 5, 1, 11, 1, 4, 4, 1, 0.35, 0.65, right, 2, 0.35, 0.45, 0.55, 0.65, 1.7330055000493303, 0, 3.000000,60.000000,1.000000,6.000000,0.500000,1.000000
CC8G8AWv,200,0, test, 5, 1, 12, 3, 1, 1, 3, 0.55, 0.35, right, 2, 0.35, 0.45, 0.55, 0.65, 0.5244475000072271, 0, 3.000000,60.000000,1.000000,6.000000,0.500000,1.000000
CC8G8AWv,200,0, test, 5, 1, 13, 4, 3, 3, 4, 0.65, 0.55, right, 2, 0.35, 0.45, 0.55, 0.65, 1.9963069000514224, 1, 4.000000,61.000000,1.000000,6.000000,0.500000,1.000000
CC8G8AWv,200,0, test, 5, 1, 14, 1, 2, 1, 2, 0.35, 0.45, left, 1, 0.35, 0.45, 0.55, 0.65, 3.3169063000241295, 1, 5.000000,62.000000,1.000000,6.000000,0.500000,1.000000
CC8G8AWv,200,0, test, 5, 1, 15, 4, 3, 3, 4, 0.65, 0.55, right, 2, 0.35, 0.45, 0.55, 0.65, 1.2808100999100134, 1, 6.000000,63.000000,1.000000,6.000000,0.500000,1.000000
CC8G8AWv,200,0, test, 5, 1, 16, 3, 2, 2, 3, 0.55, 0.45, right, 2, 0.35, 0.45, 0.55, 0.65, 3.9662679000757635, 1, 7.000000,64.000000,1.000000,6.000000,0.500000,1.000000
CC8G8AWv,200,0, test, 5, 1, 17, 2, 4, 2, 4, 0.45, 0.65, left, 1, 0.35, 0.45, 0.55, 0.65, 1.1722277000080794, 1, 8.000000,65.000000,1.000000,6.000000,0.500000,1.000000
CC8G8AWv,200,0, test, 5, 1, 18, 1, 4, 4, 1, 0.35, 0.65, right, 2, 0.35, 0.45, 0.55, 0.65, 0.5541437999345362, 0, 8.000000,65.000000,1.000000,6.000000,0.500000,1.000000
CC8G8AWv,200,0, test, 5, 1, 19, 4, 1, 1, 4, 0.65, 0.35, right, 2, 0.35, 0.45, 0.55, 0.65, 0.4561217000009492, 1, 9.000000,66.000000,1.000000,6.000000,0.500000,1.000000
CC8G8AWv,200,0, test, 5, 1, 20, 4, 3, 4, 3, 0.65, 0.55, left, 1, 0.35, 0.45, 0.55, 0.65, 1.9828529000515118, 1, 10.000000,67.000000,1.000000,6.000000,0.500000,1.000000
CC8G8AWv,200,0, test, 5, 1, 21, 3, 1, 1, 3, 0.55, 0.35, right, 2, 0.35, 0.45, 0.55, 0.65, 3.1003418000182137, 0, 10.000000,67.000000,1.000000,6.000000,0.500000,1.000000
CC8G8AWv,200,0, test, 5, 1, 22, 1, 3, 3, 1, 0.35, 0.55, right, 2, 0.35, 0.45, 0.55, 0.65, 0.4114609999815002, 0, 10.000000,67.000000,1.000000,6.000000,0.500000,1.000000
CC8G8AWv,200,0, test, 5, 1, 23, 1, 4, 1, 4, 0.35, 0.65, left, 1, 0.35, 0.45, 0.55, 0.65, 1.5880823000334203, 0, 10.000000,67.000000,1.000000,6.000000,0.500000,1.000000
CC8G8AWv,200,0, test, 5, 1, 24, 2, 3, 2, 3, 0.45, 0.55, left, 1, 0.35, 0.45, 0.55, 0.65, 1.0852795999962837, 1, 11.000000,68.000000,1.000000,6.000000,0.500000,1.000000
CC8G8AWv,200,0, test, 5, 1, 25, 3, 4, 4, 3, 0.55, 0.65, right, 2, 0.35, 0.45, 0.55, 0.65, 0.33878490002825856, 0, 11.000000,68.000000,1.000000,6.000000,0.500000,1.000000
CC8G8AWv,200,0, test, 6, 7, 1, 2, 1, 2, 1, 0.45, 0.35, left, 1, 0.35, 0.45, 0.55, 0.65, 1.314785600057803, 0, 0.000000,68.000000,1.000000,6.000000,0.500000,1.000000
CC8G8AWv,200,0, test, 6, 7, 2, 2, 4, 2, 4, 0.45, 0.65, left, 1, 0.35, 0.45, 0.55, 0.65, 1.0187660000519827, 1, 1.000000,69.000000,1.000000,6.000000,0.500000,1.000000
CC8G8AWv,200,0, test, 6, 7, 3, 3, 2, 2, 3, 0.55, 0.45, right, 2, 0.35, 0.45, 0.55, 0.65, 1.2146274000406265, 0, 1.000000,69.000000,1.000000,6.000000,0.500000,1.000000
CC8G8AWv,200,0, test, 6, 7, 4, 4, 3, 3, 4, 0.65, 0.55, right, 2, 0.35, 0.45, 0.55, 0.65, 1.8306460999883711, 1, 2.000000,70.000000,1.000000,6.000000,0.500000,1.000000
CC8G8AWv,200,0, test, 6, 7, 5, 2, 3, 2, 3, 0.45, 0.55, left, 1, 0.35, 0.45, 0.55, 0.65, 3.0619164999807253, 0, 2.000000,70.000000,1.000000,6.000000,0.500000,1.000000
CC8G8AWv,200,0, test, 6, 7, 6, 1, 3, 1, 3, 0.35, 0.55, left, 1, 0.35, 0.45, 0.55, 0.65, 1.864620600012131, 0, 2.000000,70.000000,1.000000,6.000000,0.500000,1.000000
CC8G8AWv,200,0, test, 6, 7, 7, 4, 1, 1, 4, 0.65, 0.35, right, 2, 0.35, 0.45, 0.55, 0.65, 1.5345866000279784, 1, 3.000000,71.000000,1.000000,6.000000,0.500000,1.000000
CC8G8AWv,200,0, test, 6, 7, 8, 4, 1, 1, 4, 0.65, 0.35, right, 2, 0.35, 0.45, 0.55, 0.65, 0.5685316999442875, 0, 3.000000,71.000000,1.000000,6.000000,0.500000,1.000000
CC8G8AWv,200,0, test, 6, 7, 9, 2, 4, 2, 4, 0.45, 0.65, left, 1, 0.35, 0.45, 0.55, 0.65, 2.0239802999421954, 1, 4.000000,72.000000,1.000000,6.000000,0.500000,1.000000
CC8G8AWv,200,0, test, 6, 7, 10, 1, 3, 3, 1, 0.35, 0.55, right, 2, 0.35, 0.45, 0.55, 0.65, 4.224014499923214, 1, 5.000000,73.000000,1.000000,6.000000,0.500000,1.000000
CC8G8AWv,200,0, test, 6, 7, 11, 2, 4, 2, 4, 0.45, 0.65, left, 1, 0.35, 0.45, 0.55, 0.65, 2.3558536999626085, 0, 5.000000,73.000000,1.000000,6.000000,0.500000,1.000000
CC8G8AWv,200,0, test, 6, 7, 12, 1, 2, 2, 1, 0.35, 0.45, right, 2, 0.35, 0.45, 0.55, 0.65, 1.8543295001145452, 0, 5.000000,73.000000,1.000000,6.000000,0.500000,1.000000
CC8G8AWv,200,0, test, 6, 7, 13, 2, 4, 4, 2, 0.45, 0.65, right, 2, 0.35, 0.45, 0.55, 0.65, 0.00010619999375194311, 1, 6.000000,74.000000,1.000000,6.000000,0.500000,1.000000
CC8G8AWv,200,0, test, 6, 7, 14, 2, 1, 1, 2, 0.45, 0.35, right, 2, 0.35, 0.45, 0.55, 0.65, 0.0001042000949382782, 1, 7.000000,75.000000,1.000000,6.000000,0.500000,1.000000
CC8G8AWv,200,0, test, 6, 7, 15, 1, 3, 3, 1, 0.35, 0.55, right, 2, 0.35, 0.45, 0.55, 0.65, 0.00012790004257112741, 0, 7.000000,75.000000,1.000000,6.000000,0.500000,1.000000
CC8G8AWv,200,0, test, 6, 7, 16, 2, 1, 1, 2, 0.45, 0.35, right, 2, 0.35, 0.45, 0.55, 0.65, 1.1825089999474585, 1, 8.000000,76.000000,1.000000,6.000000,0.500000,1.000000
CC8G8AWv,200,0, test, 6, 7, 17, 3, 4, 3, 4, 0.55, 0.65, left, 1, 0.35, 0.45, 0.55, 0.65, 2.6559484999161214, 1, 9.000000,77.000000,1.000000,6.000000,0.500000,1.000000
CC8G8AWv,200,0, test, 6, 7, 18, 2, 1, 2, 1, 0.45, 0.35, left, 1, 0.35, 0.45, 0.55, 0.65, 2.594542699982412, 0, 9.000000,77.000000,1.000000,6.000000,0.500000,1.000000
CC8G8AWv,200,0, test, 6, 7, 19, 2, 4, 4, 2, 0.45, 0.65, right, 2, 0.35, 0.45, 0.55, 0.65, 1.3275770000182092, 0, 9.000000,77.000000,1.000000,6.000000,0.500000,1.000000
CC8G8AWv,200,0, test, 6, 7, 20, 1, 3, 1, 3, 0.35, 0.55, left, 1, 0.35, 0.45, 0.55, 0.65, 0.0001061001094058156, 1, 10.000000,78.000000,1.000000,6.000000,0.500000,1.000000
CC8G8AWv,200,0, test, 6, 7, 21, 2, 3, 3, 2, 0.45, 0.55, right, 2, 0.35, 0.45, 0.55, 0.65, 1.580323600093834, 1, 11.000000,79.000000,1.000000,6.000000,0.500000,1.000000
CC8G8AWv,200,0, test, 6, 7, 22, 2, 3, 2, 3, 0.45, 0.55, left, 1, 0.35, 0.45, 0.55, 0.65, 0.8695052999537438, 0, 11.000000,79.000000,1.000000,6.000000,0.500000,1.000000
CC8G8AWv,200,0, test, 6, 7, 23, 3, 4, 4, 3, 0.55, 0.65, right, 2, 0.35, 0.45, 0.55, 0.65, 0.8582721999846399, 0, 11.000000,79.000000,1.000000,6.000000,0.500000,1.000000
CC8G8AWv,200,0, test, 6, 7, 24, 3, 4, 3, 4, 0.55, 0.65, left, 1, 0.35, 0.45, 0.55, 0.65, 0.00010179996024817228, 0, 11.000000,79.000000,1.000000,6.000000,0.500000,1.000000
CC8G8AWv,200,0, test, 6, 7, 25, 4, 3, 3, 4, 0.65, 0.55, right, 2, 0.35, 0.45, 0.55, 0.65, 0.8688299000496045, 1, 12.000000,80.000000,1.000000,6.000000,0.500000,1.000000
CC8G8AWv,200,0, test, 7, 1, 1, 4, 3, 4, 3, 0.65, 0.55, left, 1, 0.35, 0.45, 0.55, 0.65, 1.889547000057064, 0, 0.000000,80.000000,1.000000,6.000000,0.500000,1.000000
CC8G8AWv,200,0, test, 7, 1, 2, 3, 4, 3, 4, 0.55, 0.65, left, 1, 0.35, 0.45, 0.55, 0.65, 0.7508005000418052, 1, 1.000000,81.000000,1.000000,6.000000,0.500000,1.000000
CC8G8AWv,200,0, test, 7, 1, 3, 1, 4, 4, 1, 0.35, 0.65, right, 2, 0.35, 0.45, 0.55, 0.65, 1.53743939998094, 0, 1.000000,81.000000,1.000000,6.000000,0.500000,1.000000
CC8G8AWv,200,0, test, 7, 1, 4, 1, 3, 1, 3, 0.35, 0.55, left, 1, 0.35, 0.45, 0.55, 0.65, 1.6009248999180272, 1, 2.000000,82.000000,1.000000,6.000000,0.500000,1.000000
CC8G8AWv,200,0, test, 7, 1, 5, 2, 3, 2, 3, 0.45, 0.55, left, 1, 0.35, 0.45, 0.55, 0.65, 1.6973758999956772, 1, 3.000000,83.000000,1.000000,6.000000,0.500000,1.000000
CC8G8AWv,200,0, test, 7, 1, 6, 4, 1, 4, 1, 0.65, 0.35, left, 1, 0.35, 0.45, 0.55, 0.65, 1.398172700079158, 0, 3.000000,83.000000,1.000000,6.000000,0.500000,1.000000
CC8G8AWv,200,0, test, 7, 1, 7, 2, 3, 3, 2, 0.45, 0.55, right, 2, 0.35, 0.45, 0.55, 0.65, 0.9307738000061363, 1, 4.000000,84.000000,1.000000,6.000000,0.500000,1.000000
CC8G8AWv,200,0, test, 7, 1, 8, 3, 1, 3, 1, 0.55, 0.35, left, 1, 0.35, 0.45, 0.55, 0.65, 1.226208999985829, 0, 4.000000,84.000000,1.000000,6.000000,0.500000,1.000000
CC8G8AWv,200,0, test, 7, 1, 9, 3, 4, 4, 3, 0.55, 0.65, right, 2, 0.35, 0.45, 0.55, 0.65, 0.8580800999188796, 1, 5.000000,85.000000,1.000000,6.000000,0.500000,1.000000
CC8G8AWv,200,0, test, 7, 1, 10, 2, 1, 1, 2, 0.45, 0.35, right, 2, 0.35, 0.45, 0.55, 0.65, 1.2366080000065267, 1, 6.000000,86.000000,1.000000,6.000000,0.500000,1.000000
CC8G8AWv,200,0, test, 7, 1, 11, 2, 1, 2, 1, 0.45, 0.35, left, 1, 0.35, 0.45, 0.55, 0.65, 0.7320439999457449, 1, 7.000000,87.000000,1.000000,6.000000,0.500000,1.000000
CC8G8AWv,200,0, test, 7, 1, 12, 3, 1, 1, 3, 0.55, 0.35, right, 2, 0.35, 0.45, 0.55, 0.65, 1.063549500075169, 0, 7.000000,87.000000,1.000000,6.000000,0.500000,1.000000
CC8G8AWv,200,0, test, 7, 1, 13, 1, 3, 1, 3, 0.35, 0.55, left, 1, 0.35, 0.45, 0.55, 0.65, 1.213542600045912, 0, 7.000000,87.000000,1.000000,6.000000,0.500000,1.000000
CC8G8AWv,200,0, test, 7, 1, 14, 4, 1, 4, 1, 0.65, 0.35, left, 1, 0.35, 0.45, 0.55, 0.65, 0.8893828999716789, 0, 7.000000,87.000000,1.000000,6.000000,0.500000,1.000000
CC8G8AWv,200,0, test, 7, 1, 15, 1, 3, 3, 1, 0.35, 0.55, right, 2, 0.35, 0.45, 0.55, 0.65, 0.6226889000972733, 1, 8.000000,88.000000,1.000000,6.000000,0.500000,1.000000
CC8G8AWv,200,0, test, 7, 1, 16, 3, 4, 4, 3, 0.55, 0.65, right, 2, 0.35, 0.45, 0.55, 0.65, 0.9706806000322104, 1, 9.000000,89.000000,1.000000,6.000000,0.500000,1.000000
CC8G8AWv,200,0, test, 7, 1, 17, 1, 4, 1, 4, 0.35, 0.65, left, 1, 0.35, 0.45, 0.55, 0.65, 1.2206374000525102, 0, 9.000000,89.000000,1.000000,6.000000,0.500000,1.000000
CC8G8AWv,200,0, test, 7, 1, 18, 3, 4, 3, 4, 0.55, 0.65, left, 1, 0.35, 0.45, 0.55, 0.65, 0.7645121000241488, 1, 10.000000,90.000000,1.000000,6.000000,0.500000,1.000000
CC8G8AWv,200,0, test, 7, 1, 19, 2, 4, 2, 4, 0.45, 0.65, left, 1, 0.35, 0.45, 0.55, 0.65, 1.0705996999749914, 0, 10.000000,90.000000,1.000000,6.000000,0.500000,1.000000
CC8G8AWv,200,0, test, 7, 1, 20, 2, 1, 2, 1, 0.45, 0.35, left, 1, 0.35, 0.45, 0.55, 0.65, 1.124642200069502, 1, 11.000000,91.000000,1.000000,6.000000,0.500000,1.000000
CC8G8AWv,200,0, test, 7, 1, 21, 2, 1, 2, 1, 0.45, 0.35, left, 1, 0.35, 0.45, 0.55, 0.65, 0.8085920999292284, 0, 11.000000,91.000000,1.000000,6.000000,0.500000,1.000000
CC8G8AWv,200,0, test, 7, 1, 22, 2, 3, 3, 2, 0.45, 0.55, right, 2, 0.35, 0.45, 0.55, 0.65, 1.6053461000556126, 0, 11.000000,91.000000,1.000000,6.000000,0.500000,1.000000
CC8G8AWv,200,0, test, 7, 1, 23, 2, 1, 2, 1, 0.45, 0.35, left, 1, 0.35, 0.45, 0.55, 0.65, 0.585924300015904, 0, 11.000000,91.000000,1.000000,6.000000,0.500000,1.000000
CC8G8AWv,200,0, test, 7, 1, 24, 1, 2, 2, 1, 0.35, 0.45, right, 2, 0.35, 0.45, 0.55, 0.65, 0.4872530000284314, 1, 12.000000,92.000000,1.000000,6.000000,0.500000,1.000000
CC8G8AWv,200,0, test, 7, 1, 25, 2, 1, 1, 2, 0.45, 0.35, right, 2, 0.35, 0.45, 0.55, 0.65, 1.188608100055717, 0, 12.000000,92.000000,1.000000,6.000000,0.500000,1.000000
CC8G8AWv,200,0, test, 8, 7, 1, 1, 4, 4, 1, 0.35, 0.65, right, 2, 0.35, 0.45, 0.55, 0.65, 1.2906210999935865, 0, 0.000000,92.000000,1.000000,6.000000,0.500000,1.000000
CC8G8AWv,200,0, test, 8, 7, 2, 3, 4, 4, 3, 0.55, 0.65, right, 2, 0.35, 0.45, 0.55, 0.65, 1.1951402999693528, 0, 0.000000,92.000000,1.000000,6.000000,0.500000,1.000000
CC8G8AWv,200,0, test, 8, 7, 3, 1, 3, 1, 3, 0.35, 0.55, left, 1, 0.35, 0.45, 0.55, 0.65, 1.7357677000109106, 0, 0.000000,92.000000,1.000000,6.000000,0.500000,1.000000
CC8G8AWv,200,0, test, 8, 7, 4, 4, 3, 3, 4, 0.65, 0.55, right, 2, 0.35, 0.45, 0.55, 0.65, 2.6624579000053927, 0, 0.000000,92.000000,1.000000,6.000000,0.500000,1.000000
CC8G8AWv,200,0, test, 8, 7, 5, 4, 1, 1, 4, 0.65, 0.35, right, 2, 0.35, 0.45, 0.55, 0.65, 1.9324505999684334, 0, 0.000000,92.000000,1.000000,6.000000,0.500000,1.000000
CC8G8AWv,200,0, test, 8, 7, 6, 2, 3, 2, 3, 0.45, 0.55, left, 1, 0.35, 0.45, 0.55, 0.65, 1.111118400003761, 0, 0.000000,92.000000,1.000000,6.000000,0.500000,1.000000
CC8G8AWv,200,0, test, 8, 7, 7, 1, 2, 1, 2, 0.35, 0.45, left, 1, 0.35, 0.45, 0.55, 0.65, 1.6869384000310674, 0, 0.000000,92.000000,1.000000,6.000000,0.500000,1.000000
CC8G8AWv,200,0, test, 8, 7, 8, 2, 1, 2, 1, 0.45, 0.35, left, 1, 0.35, 0.45, 0.55, 0.65, 0.5755014999303967, 1, 1.000000,93.000000,1.000000,6.000000,0.500000,1.000000
CC8G8AWv,200,0, test, 8, 7, 9, 3, 1, 3, 1, 0.55, 0.35, left, 1, 0.35, 0.45, 0.55, 0.65, 1.5475886999629438, 1, 2.000000,94.000000,1.000000,6.000000,0.500000,1.000000
CC8G8AWv,200,0, test, 8, 7, 10, 2, 4, 2, 4, 0.45, 0.65, left, 1, 0.35, 0.45, 0.55, 0.65, 1.4614509999519214, 1, 3.000000,95.000000,1.000000,6.000000,0.500000,1.000000
CC8G8AWv,200,0, test, 8, 7, 11, 2, 3, 2, 3, 0.45, 0.55, left, 1, 0.35, 0.45, 0.55, 0.65, 2.439466900075786, 0, 3.000000,95.000000,1.000000,6.000000,0.500000,1.000000
CC8G8AWv,200,0, test, 8, 7, 12, 2, 1, 1, 2, 0.45, 0.35, right, 2, 0.35, 0.45, 0.55, 0.65, 2.7942428999813274, 1, 4.000000,96.000000,1.000000,6.000000,0.500000,1.000000
CC8G8AWv,200,0, test, 8, 7, 13, 2, 1, 1, 2, 0.45, 0.35, right, 2, 0.35, 0.45, 0.55, 0.65, 1.0183397000655532, 1, 5.000000,97.000000,1.000000,6.000000,0.500000,1.000000
CC8G8AWv,200,0, test, 8, 7, 14, 4, 1, 4, 1, 0.65, 0.35, left, 1, 0.35, 0.45, 0.55, 0.65, 2.721972299972549, 1, 6.000000,98.000000,1.000000,6.000000,0.500000,1.000000
CC8G8AWv,200,0, test, 8, 7, 15, 4, 3, 3, 4, 0.65, 0.55, right, 2, 0.35, 0.45, 0.55, 0.65, 1.1253119999310002, 1, 7.000000,99.000000,1.000000,6.000000,0.500000,1.000000
CC8G8AWv,200,0, test, 8, 7, 16, 3, 2, 2, 3, 0.55, 0.45, right, 2, 0.35, 0.45, 0.55, 0.65, 2.2646390999434516, 0, 7.000000,99.000000,1.000000,6.000000,0.500000,1.000000
CC8G8AWv,200,0, test, 8, 7, 17, 4, 1, 1, 4, 0.65, 0.35, right, 2, 0.35, 0.45, 0.55, 0.65, 1.1299488000804558, 1, 8.000000,100.000000,1.000000,6.000000,0.500000,1.000000
CC8G8AWv,200,0, test, 8, 7, 18, 2, 3, 3, 2, 0.45, 0.55, right, 2, 0.35, 0.45, 0.55, 0.65, 4.200417599990033, 1, 9.000000,101.000000,1.000000,6.000000,0.500000,1.000000
CC8G8AWv,200,0, test, 8, 7, 19, 2, 3, 2, 3, 0.45, 0.55, left, 1, 0.35, 0.45, 0.55, 0.65, 1.5492056999355555, 1, 10.000000,102.000000,1.000000,6.000000,0.500000,1.000000
CC8G8AWv,200,0, test, 8, 7, 20, 4, 3, 4, 3, 0.65, 0.55, left, 1, 0.35, 0.45, 0.55, 0.65, 2.247047399985604, 1, 11.000000,103.000000,1.000000,6.000000,0.500000,1.000000
CC8G8AWv,200,0, test, 8, 7, 21, 4, 3, 4, 3, 0.65, 0.55, left, 1, 0.35, 0.45, 0.55, 0.65, 0.9337588000344113, 1, 12.000000,104.000000,1.000000,6.000000,0.500000,1.000000
CC8G8AWv,200,0, test, 8, 7, 22, 2, 3, 2, 3, 0.45, 0.55, left, 1, 0.35, 0.45, 0.55, 0.65, 1.3083912000292912, 1, 13.000000,105.000000,1.000000,6.000000,0.500000,1.000000
CC8G8AWv,200,0, test, 8, 7, 23, 4, 1, 1, 4, 0.65, 0.35, right, 2, 0.35, 0.45, 0.55, 0.65, 1.260288199991919, 1, 14.000000,106.000000,1.000000,6.000000,0.500000,1.000000
CC8G8AWv,200,0, test, 8, 7, 24, 3, 1, 1, 3, 0.55, 0.35, right, 2, 0.35, 0.45, 0.55, 0.65, 2.8224675999954343, 0, 14.000000,106.000000,1.000000,6.000000,0.500000,1.000000
CC8G8AWv,200,0, test, 8, 7, 25, 4, 1, 1, 4, 0.65, 0.35, right, 2, 0.35, 0.45, 0.55, 0.65, 0.9536552999634296, 0, 14.000000,106.000000,1.000000,6.000000,0.500000,1.000000
