ShaharID, group, counterbalance, block_type, block, delay_condition, trial, chosen, unchosen, offer_left_image, offer_right_image, exp_value_chosen, exp_value_unchosen, choice_location, choice_key, exp_value1, exp_value2, exp_value3, exp_value4, RT, reward, coins_per_block, coins_per_task,ITI_duration,rt_deadline,choice_feedback_duration,outcome_duration
KY28Zyiu,100,0, practice, 1, 1, 1, 2, 3, 3, 2, 0.45, 0.55, right, 2, 0.35, 0.45, 0.55, 0.65, 3.0809510000108276, 0, 0.000000,0.000000,1.000000,6.000000,0.500000,1.000000
KY28Zyiu,100,0, practice, 1, 1, 2, 4, 2, 2, 4, 0.65, 0.45, right, 2, 0.35, 0.45, 0.55, 0.65, 1.113097800000105, 0, 0.000000,0.000000,1.000000,6.000000,0.500000,1.000000
KY28Zyiu,100,0, practice, 1, 1, 3, 1, 4, 1, 4, 0.35, 0.65, left, 1, 0.35, 0.45, 0.55, 0.65, 0.988036299997475, 1, 1.000000,1.000000,1.000000,6.000000,0.500000,1.000000
KY28Zyiu,100,0, practice, 1, 1, 4, 3, 4, 3, 4, 0.55, 0.65, left, 1, 0.35, 0.45, 0.55, 0.65, 0.6729120999953011, 1, 2.000000,2.000000,1.000000,6.000000,0.500000,1.000000
KY28Zyiu,100,0, practice, 1, 1, 5, 1, 3, 1, 3, 0.35, 0.55, left, 1, 0.35, 0.45, 0.55, 0.65, 0.8982664000068326, 0, 2.000000,2.000000,1.000000,6.000000,0.500000,1.000000
KY28Zyiu,100,0, test, 1, 1, 1, 4, 2, 4, 2, 0.65, 0.45, left, 1, 0.35, 0.45, 0.55, 0.65, 1.8163533000042662, 0, 0.000000,2.000000,1.000000,6.000000,0.500000,1.000000
KY28Zyiu,100,0, test, 1, 1, 2, 2, 3, 2, 3, 0.45, 0.55, left, 1, 0.35, 0.45, 0.55, 0.65, 0.8374839000025531, 0, 0.000000,2.000000,1.000000,6.000000,0.500000,1.000000
KY28Zyiu,100,0, test, 1, 1, 3, 1, 4, 1, 4, 0.35, 0.65, left, 1, 0.35, 0.45, 0.55, 0.65, 1.2406058999913512, 1, 1.000000,3.000000,1.000000,6.000000,0.500000,1.000000
KY28Zyiu,100,0, test, 1, 1, 4, 1, 4, 1, 4, 0.35, 0.65, left, 1, 0.35, 0.45, 0.55, 0.65, 0.7080257999914465, 0, 1.000000,3.000000,1.000000,6.000000,0.500000,1.000000
KY28Zyiu,100,0, test, 1, 1, 5, 3, 4, 4, 3, 0.55, 0.65, right, 2, 0.35, 0.45, 0.55, 0.65, 1.0679018999944674, 1, 2.000000,4.000000,1.000000,6.000000,0.500000,1.000000
KY28Zyiu,100,0, test, 1, 1, 6, 2, 4, 2, 4, 0.45, 0.65, left, 1, 0.35, 0.45, 0.55, 0.65, 1.5980328000005102, 0, 2.000000,4.000000,1.000000,6.000000,0.500000,1.000000
KY28Zyiu,100,0, test, 1, 1, 7, 1, 4, 4, 1, 0.35, 0.65, right, 2, 0.35, 0.45, 0.55, 0.65, 0.9386153000086779, 1, 3.000000,5.000000,1.000000,6.000000,0.500000,1.000000
KY28Zyiu,100,0, test, 1, 1, 8, 1, 3, 3, 1, 0.35, 0.55, right, 2, 0.35, 0.45, 0.55, 0.65, 0.9179801999998745, 0, 3.000000,5.000000,1.000000,6.000000,0.500000,1.000000
KY28Zyiu,100,0, test, 1, 1, 9, 2, 1, 1, 2, 0.45, 0.35, right, 2, 0.35, 0.45, 0.55, 0.65, 1.53398880000168, 1, 4.000000,6.000000,1.000000,6.000000,0.500000,1.000000
KY28Zyiu,100,0, test, 1, 1, 10, 2, 1, 2, 1, 0.45, 0.35, left, 1, 0.35, 0.45, 0.55, 0.65, 0.9411694000009447, 1, 5.000000,7.000000,1.000000,6.000000,0.500000,1.000000
KY28Zyiu,100,0, test, 1, 1, 11, 3, 4, 4, 3, 0.55, 0.65, right, 2, 0.35, 0.45, 0.55, 0.65, 1.4407607000030112, 1, 6.000000,8.000000,1.000000,6.000000,0.500000,1.000000
KY28Zyiu,100,0, test, 1, 1, 12, 1, 4, 4, 1, 0.35, 0.65, right, 2, 0.35, 0.45, 0.55, 0.65, 1.1560129999998026, 0, 6.000000,8.000000,1.000000,6.000000,0.500000,1.000000
KY28Zyiu,100,0, test, 1, 1, 13, 4, 1, 4, 1, 0.65, 0.35, left, 1, 0.35, 0.45, 0.55, 0.65, 0.6943946999963373, 1, 7.000000,9.000000,1.000000,6.000000,0.500000,1.000000
KY28Zyiu,100,0, test, 1, 1, 14, 3, 2, 3, 2, 0.55, 0.45, left, 1, 0.35, 0.45, 0.55, 0.65, 2.329403199997614, 0, 7.000000,9.000000,1.000000,6.000000,0.500000,1.000000
KY28Zyiu,100,0, test, 1, 1, 15, 1, 3, 3, 1, 0.35, 0.55, right, 2, 0.35, 0.45, 0.55, 0.65, 1.7727455999993253, 0, 7.000000,9.000000,1.000000,6.000000,0.500000,1.000000
KY28Zyiu,100,0, test, 1, 1, 16, 4, 2, 4, 2, 0.65, 0.45, left, 1, 0.35, 0.45, 0.55, 0.65, 2.6159508999990067, 0, 7.000000,9.000000,1.000000,6.000000,0.500000,1.000000
KY28Zyiu,100,0, test, 1, 1, 17, 1, 2, 2, 1, 0.35, 0.45, right, 2, 0.35, 0.45, 0.55, 0.65, 0.7717061000003014, 0, 7.000000,9.000000,1.000000,6.000000,0.500000,1.000000
KY28Zyiu,100,0, test, 1, 1, 18, 2, 1, 2, 1, 0.45, 0.35, left, 1, 0.35, 0.45, 0.55, 0.65, 1.0417640999949072, 1, 8.000000,10.000000,1.000000,6.000000,0.500000,1.000000
KY28Zyiu,100,0, test, 1, 1, 19, 2, 1, 1, 2, 0.45, 0.35, right, 2, 0.35, 0.45, 0.55, 0.65, 1.1491435000061756, 1, 9.000000,11.000000,1.000000,6.000000,0.500000,1.000000
KY28Zyiu,100,0, test, 1, 1, 20, 4, 3, 3, 4, 0.65, 0.55, right, 2, 0.35, 0.45, 0.55, 0.65, 1.1636722999974154, 1, 10.000000,12.000000,1.000000,6.000000,0.500000,1.000000
KY28Zyiu,100,0, test, 1, 1, 21, 2, 1, 2, 1, 0.45, 0.35, left, 1, 0.35, 0.45, 0.55, 0.65, 1.6177769000059925, 1, 11.000000,13.000000,1.000000,6.000000,0.500000,1.000000
KY28Zyiu,100,0, test, 1, 1, 22, 1, 3, 3, 1, 0.35, 0.55, right, 2, 0.35, 0.45, 0.55, 0.65, 2.9296400000021094, 1, 12.000000,14.000000,1.000000,6.000000,0.500000,1.000000
KY28Zyiu,100,0, test, 1, 1, 23, 2, 4, 2, 4, 0.45, 0.65, left, 1, 0.35, 0.45, 0.55, 0.65, 1.06103759999678, 1, 13.000000,15.000000,1.000000,6.000000,0.500000,1.000000
KY28Zyiu,100,0, test, 1, 1, 24, 1, 3, 1, 3, 0.35, 0.55, left, 1, 0.35, 0.45, 0.55, 0.65, 0.9877845000009984, 0, 13.000000,15.000000,1.000000,6.000000,0.500000,1.000000
KY28Zyiu,100,0, test, 1, 1, 25, 3, 4, 4, 3, 0.55, 0.65, right, 2, 0.35, 0.45, 0.55, 0.65, 1.4290405999927316, 0, 13.000000,15.000000,1.000000,6.000000,0.500000,1.000000
KY28Zyiu,100,0, test, 2, 7, 1, 3, 4, 3, 4, 0.55, 0.65, left, 1, 0.35, 0.45, 0.55, 0.65, 5.313800599993556, 0, 0.000000,15.000000,1.000000,6.000000,0.500000,1.000000
KY28Zyiu,100,0, test, 2, 7, 2, 3, 2, 3, 2, 0.55, 0.45, left, 1, 0.35, 0.45, 0.55, 0.65, 3.653535000004922, 0, 0.000000,15.000000,1.000000,6.000000,0.500000,1.000000
KY28Zyiu,100,0, test, 2, 7, 3, 2, 3, 2, 3, 0.45, 0.55, left, 1, 0.35, 0.45, 0.55, 0.65, 1.0395802999992156, 0, 0.000000,15.000000,1.000000,6.000000,0.500000,1.000000
KY28Zyiu,100,0, test, 2, 7, 4, 3, 2, 2, 3, 0.55, 0.45, right, 2, 0.35, 0.45, 0.55, 0.65, 2.7628728999989107, 1, 1.000000,16.000000,1.000000,6.000000,0.500000,1.000000
KY28Zyiu,100,0, test, 2, 7, 5, 2, 4, 4, 2, 0.45, 0.65, right, 2, 0.35, 0.45, 0.55, 0.65, 1.7535111000033794, 0, 1.000000,16.000000,1.000000,6.000000,0.500000,1.000000
KY28Zyiu,100,0, test, 2, 7, 6, 4, 1, 4, 1, 0.65, 0.35, left, 1, 0.35, 0.45, 0.55, 0.65, 4.788142999997945, 1, 2.000000,17.000000,1.000000,6.000000,0.500000,1.000000
KY28Zyiu,100,0, test, 2, 7, 7, 4, 3, 3, 4, 0.65, 0.55, right, 2, 0.35, 0.45, 0.55, 0.65, 2.0573434999969322, 1, 3.000000,18.000000,1.000000,6.000000,0.500000,1.000000
KY28Zyiu,100,0, test, 2, 7, 8, 1, 3, 1, 3, 0.35, 0.55, left, 1, 0.35, 0.45, 0.55, 0.65, 1.7280716000095708, 0, 3.000000,18.000000,1.000000,6.000000,0.500000,1.000000
KY28Zyiu,100,0, test, 2, 7, 9, 4, 2, 4, 2, 0.65, 0.45, left, 1, 0.35, 0.45, 0.55, 0.65, 1.483263200003421, 1, 4.000000,19.000000,1.000000,6.000000,0.500000,1.000000
KY28Zyiu,100,0, test, 2, 7, 10, 2, 1, 1, 2, 0.45, 0.35, right, 2, 0.35, 0.45, 0.55, 0.65, 1.7567262000084156, 0, 4.000000,19.000000,1.000000,6.000000,0.500000,1.000000
KY28Zyiu,100,0, test, 2, 7, 11, 4, 2, 4, 2, 0.65, 0.45, left, 1, 0.35, 0.45, 0.55, 0.65, 1.5632317999989027, 0, 4.000000,19.000000,1.000000,6.000000,0.500000,1.000000
KY28Zyiu,100,0, test, 2, 7, 12
KY28Zyiu,100,0, test, 2, 7, 13, 3, 4, 3, 4, 0.55, 0.65, left, 1, 0.35, 0.45, 0.55, 0.65, 0.33706410000741016, 1, 5.000000,20.000000,1.000000,6.000000,0.500000,1.000000
KY28Zyiu,100,0, test, 2, 7, 14, 3, 1, 3, 1, 0.55, 0.35, left, 1, 0.35, 0.45, 0.55, 0.65, 1.0123292000062065, 0, 5.000000,20.000000,1.000000,6.000000,0.500000,1.000000
KY28Zyiu,100,0, test, 2, 7, 15, 2, 3, 3, 2, 0.45, 0.55, right, 2, 0.35, 0.45, 0.55, 0.65, 0.5372110000025714, 1, 6.000000,21.000000,1.000000,6.000000,0.500000,1.000000
KY28Zyiu,100,0, test, 2, 7, 16, 4, 1, 4, 1, 0.65, 0.35, left, 1, 0.35, 0.45, 0.55, 0.65, 1.0725817999918945, 1, 7.000000,22.000000,1.000000,6.000000,0.500000,1.000000
KY28Zyiu,100,0, test, 2, 7, 17, 4, 1, 4, 1, 0.65, 0.35, left, 1, 0.35, 0.45, 0.55, 0.65, 0.8702694999956293, 0, 7.000000,22.000000,1.000000,6.000000,0.500000,1.000000
KY28Zyiu,100,0, test, 2, 7, 18, 1, 3, 1, 3, 0.35, 0.55, left, 1, 0.35, 0.45, 0.55, 0.65, 1.3524579999939306, 0, 7.000000,22.000000,1.000000,6.000000,0.500000,1.000000
KY28Zyiu,100,0, test, 2, 7, 19, 4, 3, 4, 3, 0.65, 0.55, left, 1, 0.35, 0.45, 0.55, 0.65, 1.0631515999994008, 1, 8.000000,23.000000,1.000000,6.000000,0.500000,1.000000
KY28Zyiu,100,0, test, 2, 7, 20, 2, 3, 3, 2, 0.45, 0.55, right, 2, 0.35, 0.45, 0.55, 0.65, 1.2697762999887345, 1, 9.000000,24.000000,1.000000,6.000000,0.500000,1.000000
KY28Zyiu,100,0, test, 2, 7, 21, 2, 4, 4, 2, 0.45, 0.65, right, 2, 0.35, 0.45, 0.55, 0.65, 0.7157756000087829, 0, 9.000000,24.000000,1.000000,6.000000,0.500000,1.000000
KY28Zyiu,100,0, test, 2, 7, 22, 4, 3, 4, 3, 0.65, 0.55, left, 1, 0.35, 0.45, 0.55, 0.65, 1.2309315000020433, 1, 10.000000,25.000000,1.000000,6.000000,0.500000,1.000000
KY28Zyiu,100,0, test, 2, 7, 23, 3, 1, 1, 3, 0.55, 0.35, right, 2, 0.35, 0.45, 0.55, 0.65, 1.1063502000033623, 1, 11.000000,26.000000,1.000000,6.000000,0.500000,1.000000
KY28Zyiu,100,0, test, 2, 7, 24, 2, 3, 2, 3, 0.45, 0.55, left, 1, 0.35, 0.45, 0.55, 0.65, 1.2629487999947742, 0, 11.000000,26.000000,1.000000,6.000000,0.500000,1.000000
KY28Zyiu,100,0, test, 2, 7, 25, 3, 2, 3, 2, 0.55, 0.45, left, 1, 0.35, 0.45, 0.55, 0.65, 0.8168305999861332, 1, 12.000000,27.000000,1.000000,6.000000,0.500000,1.000000
KY28Zyiu,100,0, test, 3, 1, 1, 2, 4, 2, 4, 0.45, 0.65, left, 1, 0.35, 0.45, 0.55, 0.65, 0.9475291999988258, 1, 1.000000,28.000000,1.000000,6.000000,0.500000,1.000000
KY28Zyiu,100,0, test, 3, 1, 2, 2, 3, 2, 3, 0.45, 0.55, left, 1, 0.35, 0.45, 0.55, 0.65, 0.5368189000000712, 1, 2.000000,29.000000,1.000000,6.000000,0.500000,1.000000
KY28Zyiu,100,0, test, 3, 1, 3, 2, 1, 1, 2, 0.45, 0.35, right, 2, 0.35, 0.45, 0.55, 0.65, 0.5907628999993904, 1, 3.000000,30.000000,1.000000,6.000000,0.500000,1.000000
KY28Zyiu,100,0, test, 3, 1, 4, 2, 1, 2, 1, 0.45, 0.35, left, 1, 0.35, 0.45, 0.55, 0.65, 0.41337989999738056, 1, 4.000000,31.000000,1.000000,6.000000,0.500000,1.000000
KY28Zyiu,100,0, test, 3, 1, 5, 2, 1, 1, 2, 0.45, 0.35, right, 2, 0.35, 0.45, 0.55, 0.65, 0.4734891999978572, 0, 4.000000,31.000000,1.000000,6.000000,0.500000,1.000000
KY28Zyiu,100,0, test, 3, 1, 6, 1, 4, 4, 1, 0.35, 0.65, right, 2, 0.35, 0.45, 0.55, 0.65, 1.0832678000006126, 0, 4.000000,31.000000,1.000000,6.000000,0.500000,1.000000
KY28Zyiu,100,0, test, 3, 1, 7, 2, 1, 2, 1, 0.45, 0.35, left, 1, 0.35, 0.45, 0.55, 0.65, 0.9327231000061147, 1, 5.000000,32.000000,1.000000,6.000000,0.500000,1.000000
KY28Zyiu,100,0, test, 3, 1, 8, 3, 1, 3, 1, 0.55, 0.35, left, 1, 0.35, 0.45, 0.55, 0.65, 1.2680301999935182, 0, 5.000000,32.000000,1.000000,6.000000,0.500000,1.000000
KY28Zyiu,100,0, test, 3, 1, 9, 2, 3, 3, 2, 0.45, 0.55, right, 2, 0.35, 0.45, 0.55, 0.65, 1.1213743000116665, 1, 6.000000,33.000000,1.000000,6.000000,0.500000,1.000000
KY28Zyiu,100,0, test, 3, 1, 10, 2, 1, 1, 2, 0.45, 0.35, right, 2, 0.35, 0.45, 0.55, 0.65, 0.9046926000009989, 0, 6.000000,33.000000,1.000000,6.000000,0.500000,1.000000
KY28Zyiu,100,0, test, 3, 1, 11, 2, 1, 1, 2, 0.45, 0.35, right, 2, 0.35, 0.45, 0.55, 0.65, 1.0412295999994967, 0, 6.000000,33.000000,1.000000,6.000000,0.500000,1.000000
KY28Zyiu,100,0, test, 3, 1, 12, 1, 4, 1, 4, 0.35, 0.65, left, 1, 0.35, 0.45, 0.55, 0.65, 1.164781799991033, 0, 6.000000,33.000000,1.000000,6.000000,0.500000,1.000000
KY28Zyiu,100,0, test, 3, 1, 13, 3, 4, 3, 4, 0.55, 0.65, left, 1, 0.35, 0.45, 0.55, 0.65, 1.0699939999904018, 0, 6.000000,33.000000,1.000000,6.000000,0.500000,1.000000
KY28Zyiu,100,0, test, 3, 1, 14, 1, 4, 1, 4, 0.35, 0.65, left, 1, 0.35, 0.45, 0.55, 0.65, 1.4400681999977678, 0, 6.000000,33.000000,1.000000,6.000000,0.500000,1.000000
KY28Zyiu,100,0, test, 3, 1, 15, 3, 1, 1, 3, 0.55, 0.35, right, 2, 0.35, 0.45, 0.55, 0.65, 1.051145199991879, 1, 7.000000,34.000000,1.000000,6.000000,0.500000,1.000000
KY28Zyiu,100,0, test, 3, 1, 16, 2, 4, 2, 4, 0.45, 0.65, left, 1, 0.35, 0.45, 0.55, 0.65, 0.7060332999972161, 1, 8.000000,35.000000,1.000000,6.000000,0.500000,1.000000
KY28Zyiu,100,0, test, 3, 1, 17, 3, 4, 3, 4, 0.55, 0.65, left, 1, 0.35, 0.45, 0.55, 0.65, 0.8617770999990171, 1, 9.000000,36.000000,1.000000,6.000000,0.500000,1.000000
KY28Zyiu,100,0, test, 3, 1, 18, 2, 3, 3, 2, 0.45, 0.55, right, 2, 0.35, 0.45, 0.55, 0.65, 1.5999778999976115, 0, 9.000000,36.000000,1.000000,6.000000,0.500000,1.000000
KY28Zyiu,100,0, test, 3, 1, 19, 2, 4, 4, 2, 0.45, 0.65, right, 2, 0.35, 0.45, 0.55, 0.65, 0.7439087000093423, 0, 9.000000,36.000000,1.000000,6.000000,0.500000,1.000000
KY28Zyiu,100,0, test, 3, 1, 20, 3, 2, 2, 3, 0.55, 0.45, right, 2, 0.35, 0.45, 0.55, 0.65, 1.0073770000017248, 1, 10.000000,37.000000,1.000000,6.000000,0.500000,1.000000
KY28Zyiu,100,0, test, 3, 1, 21, 3, 1, 1, 3, 0.55, 0.35, right, 2, 0.35, 0.45, 0.55, 0.65, 0.995928799995454, 1, 11.000000,38.000000,1.000000,6.000000,0.500000,1.000000
KY28Zyiu,100,0, test, 3, 1, 22, 3, 2, 2, 3, 0.55, 0.45, right, 2, 0.35, 0.45, 0.55, 0.65, 0.8926591999916127, 0, 11.000000,38.000000,1.000000,6.000000,0.500000,1.000000
KY28Zyiu,100,0, test, 3, 1, 23, 3, 4, 4, 3, 0.55, 0.65, right, 2, 0.35, 0.45, 0.55, 0.65, 0.705936099999235, 0, 11.000000,38.000000,1.000000,6.000000,0.500000,1.000000
KY28Zyiu,100,0, test, 3, 1, 24, 4, 2, 4, 2, 0.65, 0.45, left, 1, 0.35, 0.45, 0.55, 0.65, 1.1737941000028513, 0, 11.000000,38.000000,1.000000,6.000000,0.500000,1.000000
KY28Zyiu,100,0, test, 3, 1, 25, 2, 1, 2, 1, 0.45, 0.35, left, 1, 0.35, 0.45, 0.55, 0.65, 0.7366259999980684, 1, 12.000000,39.000000,1.000000,6.000000,0.500000,1.000000
KY28Zyiu,100,0, test, 4, 7, 1, 1, 4, 4, 1, 0.35, 0.65, right, 2, 0.35, 0.45, 0.55, 0.65, 0.5806381000002148, 0, 0.000000,39.000000,1.000000,6.000000,0.500000,1.000000
KY28Zyiu,100,0, test, 4, 7, 2, 4, 1, 4, 1, 0.65, 0.35, left, 1, 0.35, 0.45, 0.55, 0.65, 0.8094721000088612, 1, 1.000000,40.000000,1.000000,6.000000,0.500000,1.000000
KY28Zyiu,100,0, test, 4, 7, 3, 1, 2, 1, 2, 0.35, 0.45, left, 1, 0.35, 0.45, 0.55, 0.65, 1.5262467000138713, 0, 1.000000,40.000000,1.000000,6.000000,0.500000,1.000000
KY28Zyiu,100,0, test, 4, 7, 4, 3, 1, 3, 1, 0.55, 0.35, left, 1, 0.35, 0.45, 0.55, 0.65, 1.0822411000117427, 1, 2.000000,41.000000,1.000000,6.000000,0.500000,1.000000
KY28Zyiu,100,0, test, 4, 7, 5, 4, 3, 4, 3, 0.65, 0.55, left, 1, 0.35, 0.45, 0.55, 0.65, 1.2193751000013435, 1, 3.000000,42.000000,1.000000,6.000000,0.500000,1.000000
KY28Zyiu,100,0, test, 4, 7, 6, 2, 1, 1, 2, 0.45, 0.35, right, 2, 0.35, 0.45, 0.55, 0.65, 1.1075670999998692, 0, 3.000000,42.000000,1.000000,6.000000,0.500000,1.000000
KY28Zyiu,100,0, test, 4, 7, 7, 3, 1, 3, 1, 0.55, 0.35, left, 1, 0.35, 0.45, 0.55, 0.65, 0.8881409999885364, 0, 3.000000,42.000000,1.000000,6.000000,0.500000,1.000000
KY28Zyiu,100,0, test, 4, 7, 8, 4, 1, 4, 1, 0.65, 0.35, left, 1, 0.35, 0.45, 0.55, 0.65, 0.7215830999921309, 1, 4.000000,43.000000,1.000000,6.000000,0.500000,1.000000
KY28Zyiu,100,0, test, 4, 7, 9, 4, 3, 3, 4, 0.65, 0.55, right, 2, 0.35, 0.45, 0.55, 0.65, 0.7135114999982761, 1, 5.000000,44.000000,1.000000,6.000000,0.500000,1.000000
KY28Zyiu,100,0, test, 4, 7, 10, 4, 3, 3, 4, 0.65, 0.55, right, 2, 0.35, 0.45, 0.55, 0.65, 0.4446975000028033, 0, 5.000000,44.000000,1.000000,6.000000,0.500000,1.000000
KY28Zyiu,100,0, test, 4, 7, 11, 3, 1, 1, 3, 0.55, 0.35, right, 2, 0.35, 0.45, 0.55, 0.65, 0.4999755000026198, 1, 6.000000,45.000000,1.000000,6.000000,0.500000,1.000000
KY28Zyiu,100,0, test, 4, 7, 12, 3, 1, 1, 3, 0.55, 0.35, right, 2, 0.35, 0.45, 0.55, 0.65, 0.33659829999669455, 1, 7.000000,46.000000,1.000000,6.000000,0.500000,1.000000
KY28Zyiu,100,0, test, 4, 7, 13, 1, 2, 1, 2, 0.35, 0.45, left, 1, 0.35, 0.45, 0.55, 0.65, 1.0960851999989245, 0, 7.000000,46.000000,1.000000,6.000000,0.500000,1.000000
KY28Zyiu,100,0, test, 4, 7, 14, 2, 1, 2, 1, 0.45, 0.35, left, 1, 0.35, 0.45, 0.55, 0.65, 0.48523600000771694, 0, 7.000000,46.000000,1.000000,6.000000,0.500000,1.000000
KY28Zyiu,100,0, test, 4, 7, 15, 1, 4, 1, 4, 0.35, 0.65, left, 1, 0.35, 0.45, 0.55, 0.65, 0.874464699998498, 0, 7.000000,46.000000,1.000000,6.000000,0.500000,1.000000
KY28Zyiu,100,0, test, 4, 7, 16, 1, 2, 1, 2, 0.35, 0.45, left, 1, 0.35, 0.45, 0.55, 0.65, 0.9604133999964688, 1, 8.000000,47.000000,1.000000,6.000000,0.500000,1.000000
KY28Zyiu,100,0, test, 4, 7, 17, 3, 1, 1, 3, 0.55, 0.35, right, 2, 0.35, 0.45, 0.55, 0.65, 0.9512270999985049, 1, 9.000000,48.000000,1.000000,6.000000,0.500000,1.000000
KY28Zyiu,100,0, test, 4, 7, 18, 4, 1, 4, 1, 0.65, 0.35, left, 1, 0.35, 0.45, 0.55, 0.65, 0.645902100004605, 1, 10.000000,49.000000,1.000000,6.000000,0.500000,1.000000
KY28Zyiu,100,0, test, 4, 7, 19, 2, 4, 2, 4, 0.45, 0.65, left, 1, 0.35, 0.45, 0.55, 0.65, 1.1362845999974525, 1, 11.000000,50.000000,1.000000,6.000000,0.500000,1.000000
KY28Zyiu,100,0, test, 4, 7, 20, 2, 3, 2, 3, 0.45, 0.55, left, 1, 0.35, 0.45, 0.55, 0.65, 0.7079066999867791, 0, 11.000000,50.000000,1.000000,6.000000,0.500000,1.000000
KY28Zyiu,100,0, test, 4, 7, 21, 3, 2, 3, 2, 0.55, 0.45, left, 1, 0.35, 0.45, 0.55, 0.65, 0.7524787000002107, 1, 12.000000,51.000000,1.000000,6.000000,0.500000,1.000000
KY28Zyiu,100,0, test, 4, 7, 22, 1, 2, 2, 1, 0.35, 0.45, right, 2, 0.35, 0.45, 0.55, 0.65, 0.9505661000002874, 1, 13.000000,52.000000,1.000000,6.000000,0.500000,1.000000
KY28Zyiu,100,0, test, 4, 7, 23, 2, 1, 2, 1, 0.45, 0.35, left, 1, 0.35, 0.45, 0.55, 0.65, 1.0335694999957923, 1, 14.000000,53.000000,1.000000,6.000000,0.500000,1.000000
KY28Zyiu,100,0, test, 4, 7, 24, 3, 2, 3, 2, 0.55, 0.45, left, 1, 0.35, 0.45, 0.55, 0.65, 0.6248611000046367, 0, 14.000000,53.000000,1.000000,6.000000,0.500000,1.000000
KY28Zyiu,100,0, test, 4, 7, 25, 1, 3, 1, 3, 0.35, 0.55, left, 1, 0.35, 0.45, 0.55, 0.65, 0.5049725999997463, 0, 14.000000,53.000000,1.000000,6.000000,0.500000,1.000000
KY28Zyiu,100,0, test, 5, 1, 1, 1, 3, 1, 3, 0.35, 0.55, left, 1, 0.35, 0.45, 0.55, 0.65, 1.1915350000053877, 0, 0.000000,53.000000,1.000000,6.000000,0.500000,1.000000
KY28Zyiu,100,0, test, 5, 1, 2, 3, 4, 3, 4, 0.55, 0.65, left, 1, 0.35, 0.45, 0.55, 0.65, 0.4886984999902779, 1, 1.000000,54.000000,1.000000,6.000000,0.500000,1.000000
KY28Zyiu,100,0, test, 5, 1, 3, 3, 2, 2, 3, 0.55, 0.45, right, 2, 0.35, 0.45, 0.55, 0.65, 0.5134132000093814, 1, 2.000000,55.000000,1.000000,6.000000,0.500000,1.000000
KY28Zyiu,100,0, test, 5, 1, 4, 2, 4, 4, 2, 0.45, 0.65, right, 2, 0.35, 0.45, 0.55, 0.65, 0.825542000005953, 1, 3.000000,56.000000,1.000000,6.000000,0.500000,1.000000
KY28Zyiu,100,0, test, 5, 1, 5, 3, 2, 3, 2, 0.55, 0.45, left, 1, 0.35, 0.45, 0.55, 0.65, 0.7249057999870274, 0, 3.000000,56.000000,1.000000,6.000000,0.500000,1.000000
KY28Zyiu,100,0, test, 5, 1, 6, 2, 3, 3, 2, 0.45, 0.55, right, 2, 0.35, 0.45, 0.55, 0.65, 0.5649153999984264, 0, 3.000000,56.000000,1.000000,6.000000,0.500000,1.000000
KY28Zyiu,100,0, test, 5, 1, 7, 2, 4, 2, 4, 0.45, 0.65, left, 1, 0.35, 0.45, 0.55, 0.65, 0.6826815000094939, 1, 4.000000,57.000000,1.000000,6.000000,0.500000,1.000000
KY28Zyiu,100,0, test, 5, 1, 8, 3, 1, 1, 3, 0.55, 0.35, right, 2, 0.35, 0.45, 0.55, 0.65, 0.4199647999921581, 0, 4.000000,57.000000,1.000000,6.000000,0.500000,1.000000
KY28Zyiu,100,0, test, 5, 1, 9, 3, 4, 4, 3, 0.55, 0.65, right, 2, 0.35, 0.45, 0.55, 0.65, 0.7520225000043865, 0, 4.000000,57.000000,1.000000,6.000000,0.500000,1.000000
KY28Zyiu,100,0, test, 5, 1, 10, 4, 3, 4, 3, 0.65, 0.55, left, 1, 0.35, 0.45, 0.55, 0.65, 0.5145211999915773, 1, 5.000000,58.000000,1.000000,6.000000,0.500000,1.000000
KY28Zyiu,100,0, test, 5, 1, 11, 3, 4, 3, 4, 0.55, 0.65, left, 1, 0.35, 0.45, 0.55, 0.65, 0.6547617000032915, 1, 6.000000,59.000000,1.000000,6.000000,0.500000,1.000000
KY28Zyiu,100,0, test, 5, 1, 12, 3, 2, 3, 2, 0.55, 0.45, left, 1, 0.35, 0.45, 0.55, 0.65, 0.5452643000026001, 1, 7.000000,60.000000,1.000000,6.000000,0.500000,1.000000
KY28Zyiu,100,0, test, 5, 1, 13, 3, 4, 4, 3, 0.55, 0.65, right, 2, 0.35, 0.45, 0.55, 0.65, 0.2759567000030074, 0, 7.000000,60.000000,1.000000,6.000000,0.500000,1.000000
KY28Zyiu,100,0, test, 5, 1, 14, 3, 2, 2, 3, 0.55, 0.45, right, 2, 0.35, 0.45, 0.55, 0.65, 0.5298952000011923, 1, 8.000000,61.000000,1.000000,6.000000,0.500000,1.000000
KY28Zyiu,100,0, test, 5, 1, 15, 3, 1, 1, 3, 0.55, 0.35, right, 2, 0.35, 0.45, 0.55, 0.65, 0.42926770000485703, 1, 9.000000,62.000000,1.000000,6.000000,0.500000,1.000000
KY28Zyiu,100,0, test, 5, 1, 16, 3, 2, 3, 2, 0.55, 0.45, left, 1, 0.35, 0.45, 0.55, 0.65, 0.5198661000031279, 1, 10.000000,63.000000,1.000000,6.000000,0.500000,1.000000
KY28Zyiu,100,0, test, 5, 1, 17, 2, 1, 2, 1, 0.45, 0.35, left, 1, 0.35, 0.45, 0.55, 0.65, 0.7289768999908119, 1, 11.000000,64.000000,1.000000,6.000000,0.500000,1.000000
KY28Zyiu,100,0, test, 5, 1, 18, 2, 1, 2, 1, 0.45, 0.35, left, 1, 0.35, 0.45, 0.55, 0.65, 0.3307416000025114, 1, 12.000000,65.000000,1.000000,6.000000,0.500000,1.000000
KY28Zyiu,100,0, test, 5, 1, 19, 2, 1, 2, 1, 0.45, 0.35, left, 1, 0.35, 0.45, 0.55, 0.65, 0.34991920000175014, 0, 12.000000,65.000000,1.000000,6.000000,0.500000,1.000000
KY28Zyiu,100,0, test, 5, 1, 20, 4, 2, 4, 2, 0.65, 0.45, left, 1, 0.35, 0.45, 0.55, 0.65, 0.8765761999966344, 0, 12.000000,65.000000,1.000000,6.000000,0.500000,1.000000
KY28Zyiu,100,0, test, 5, 1, 21, 4, 1, 4, 1, 0.65, 0.35, left, 1, 0.35, 0.45, 0.55, 0.65, 0.9265420999872731, 0, 12.000000,65.000000,1.000000,6.000000,0.500000,1.000000
KY28Zyiu,100,0, test, 5, 1, 22, 3, 2, 2, 3, 0.55, 0.45, right, 2, 0.35, 0.45, 0.55, 0.65, 1.1184891999873798, 1, 13.000000,66.000000,1.000000,6.000000,0.500000,1.000000
KY28Zyiu,100,0, test, 5, 1, 23, 4, 2, 2, 4, 0.65, 0.45, right, 2, 0.35, 0.45, 0.55, 0.65, 1.2984947000077227, 1, 14.000000,67.000000,1.000000,6.000000,0.500000,1.000000
KY28Zyiu,100,0, test, 5, 1, 24, 3, 1, 1, 3, 0.55, 0.35, right, 2, 0.35, 0.45, 0.55, 0.65, 0.6346157000079984, 0, 14.000000,67.000000,1.000000,6.000000,0.500000,1.000000
KY28Zyiu,100,0, test, 5, 1, 25, 3, 4, 3, 4, 0.55, 0.65, left, 1, 0.35, 0.45, 0.55, 0.65, 0.44203099999867845, 0, 14.000000,67.000000,1.000000,6.000000,0.500000,1.000000
KY28Zyiu,100,0, test, 6, 7, 1, 4, 3, 4, 3, 0.65, 0.55, left, 1, 0.35, 0.45, 0.55, 0.65, 1.0803935000003548, 1, 1.000000,68.000000,1.000000,6.000000,0.500000,1.000000
KY28Zyiu,100,0, test, 6, 7, 2, 3, 2, 3, 2, 0.55, 0.45, left, 1, 0.35, 0.45, 0.55, 0.65, 0.961806199993589, 1, 2.000000,69.000000,1.000000,6.000000,0.500000,1.000000
KY28Zyiu,100,0, test, 6, 7, 3, 3, 2, 3, 2, 0.55, 0.45, left, 1, 0.35, 0.45, 0.55, 0.65, 0.708301599996048, 1, 3.000000,70.000000,1.000000,6.000000,0.500000,1.000000
KY28Zyiu,100,0, test, 6, 7, 4, 4, 3, 4, 3, 0.65, 0.55, left, 1, 0.35, 0.45, 0.55, 0.65, 0.9091867000097409, 1, 4.000000,71.000000,1.000000,6.000000,0.500000,1.000000
KY28Zyiu,100,0, test, 6, 7, 5, 4, 1, 1, 4, 0.65, 0.35, right, 2, 0.35, 0.45, 0.55, 0.65, 0.5696151999873109, 0, 4.000000,71.000000,1.000000,6.000000,0.500000,1.000000
KY28Zyiu,100,0, test, 6, 7, 6, 3, 4, 3, 4, 0.55, 0.65, left, 1, 0.35, 0.45, 0.55, 0.65, 0.5556053000036627, 0, 4.000000,71.000000,1.000000,6.000000,0.500000,1.000000
KY28Zyiu,100,0, test, 6, 7, 7, 1, 3, 3, 1, 0.35, 0.55, right, 2, 0.35, 0.45, 0.55, 0.65, 0.45418499999505, 1, 5.000000,72.000000,1.000000,6.000000,0.500000,1.000000
KY28Zyiu,100,0, test, 6, 7, 8, 1, 4, 1, 4, 0.35, 0.65, left, 1, 0.35, 0.45, 0.55, 0.65, 0.6608179999893764, 1, 6.000000,73.000000,1.000000,6.000000,0.500000,1.000000
KY28Zyiu,100,0, test, 6, 7, 9, 4, 2, 2, 4, 0.65, 0.45, right, 2, 0.35, 0.45, 0.55, 0.65, 0.5468701999925543, 1, 7.000000,74.000000,1.000000,6.000000,0.500000,1.000000
KY28Zyiu,100,0, test, 6, 7, 10, 1, 4, 1, 4, 0.35, 0.65, left, 1, 0.35, 0.45, 0.55, 0.65, 0.8143221000063932, 1, 8.000000,75.000000,1.000000,6.000000,0.500000,1.000000
KY28Zyiu,100,0, test, 6, 7, 11, 3, 2, 3, 2, 0.55, 0.45, left, 1, 0.35, 0.45, 0.55, 0.65, 0.5814602000027662, 0, 8.000000,75.000000,1.000000,6.000000,0.500000,1.000000
KY28Zyiu,100,0, test, 6, 7, 12, 4, 3, 3, 4, 0.65, 0.55, right, 2, 0.35, 0.45, 0.55, 0.65, 0.4707376000005752, 0, 8.000000,75.000000,1.000000,6.000000,0.500000,1.000000
KY28Zyiu,100,0, test, 6, 7, 13, 2, 4, 2, 4, 0.45, 0.65, left, 1, 0.35, 0.45, 0.55, 0.65, 0.5128797999932431, 0, 8.000000,75.000000,1.000000,6.000000,0.500000,1.000000
KY28Zyiu,100,0, test, 6, 7, 14, 1, 4, 1, 4, 0.35, 0.65, left, 1, 0.35, 0.45, 0.55, 0.65, 0.7333906999992905, 0, 8.000000,75.000000,1.000000,6.000000,0.500000,1.000000
KY28Zyiu,100,0, test, 6, 7, 15, 4, 3, 4, 3, 0.65, 0.55, left, 1, 0.35, 0.45, 0.55, 0.65, 0.6287940000038361, 1, 9.000000,76.000000,1.000000,6.000000,0.500000,1.000000
KY28Zyiu,100,0, test, 6, 7, 16, 4, 1, 4, 1, 0.65, 0.35, left, 1, 0.35, 0.45, 0.55, 0.65, 0.5845892000070307, 1, 10.000000,77.000000,1.000000,6.000000,0.500000,1.000000
KY28Zyiu,100,0, test, 6, 7, 17, 1, 2, 2, 1, 0.35, 0.45, right, 2, 0.35, 0.45, 0.55, 0.65, 0.9059333999903174, 0, 10.000000,77.000000,1.000000,6.000000,0.500000,1.000000
KY28Zyiu,100,0, test, 6, 7, 18, 4, 3, 4, 3, 0.65, 0.55, left, 1, 0.35, 0.45, 0.55, 0.65, 0.8026484000001801, 1, 11.000000,78.000000,1.000000,6.000000,0.500000,1.000000
KY28Zyiu,100,0, test, 6, 7, 19, 4, 1, 1, 4, 0.65, 0.35, right, 2, 0.35, 0.45, 0.55, 0.65, 0.7191413999971701, 1, 12.000000,79.000000,1.000000,6.000000,0.500000,1.000000
KY28Zyiu,100,0, test, 6, 7, 20, 1, 3, 1, 3, 0.35, 0.55, left, 1, 0.35, 0.45, 0.55, 0.65, 0.47066340000310447, 1, 13.000000,80.000000,1.000000,6.000000,0.500000,1.000000
KY28Zyiu,100,0, test, 6, 7, 21, 1, 3, 1, 3, 0.35, 0.55, left, 1, 0.35, 0.45, 0.55, 0.65, 0.45832119999977294, 0, 13.000000,80.000000,1.000000,6.000000,0.500000,1.000000
KY28Zyiu,100,0, test, 6, 7, 22, 4, 1, 4, 1, 0.65, 0.35, left, 1, 0.35, 0.45, 0.55, 0.65, 1.2566032000031555, 1, 14.000000,81.000000,1.000000,6.000000,0.500000,1.000000
KY28Zyiu,100,0, test, 6, 7, 23, 4, 3, 3, 4, 0.65, 0.55, right, 2, 0.35, 0.45, 0.55, 0.65, 0.8231206999917049, 1, 15.000000,82.000000,1.000000,6.000000,0.500000,1.000000
KY28Zyiu,100,0, test, 6, 7, 24, 4, 3, 4, 3, 0.65, 0.55, left, 1, 0.35, 0.45, 0.55, 0.65, 0.32316509999509435, 0, 15.000000,82.000000,1.000000,6.000000,0.500000,1.000000
KY28Zyiu,100,0, test, 6, 7, 25, 2, 1, 2, 1, 0.45, 0.35, left, 1, 0.35, 0.45, 0.55, 0.65, 0.4670077000046149, 0, 15.000000,82.000000,1.000000,6.000000,0.500000,1.000000
KY28Zyiu,100,0, test, 7, 1, 1, 2, 4, 2, 4, 0.45, 0.65, left, 1, 0.35, 0.45, 0.55, 0.65, 0.8175514000031399, 0, 0.000000,82.000000,1.000000,6.000000,0.500000,1.000000
KY28Zyiu,100,0, test, 7, 1, 2, 4, 1, 1, 4, 0.65, 0.35, right, 2, 0.35, 0.45, 0.55, 0.65, 0.5010694999946281, 0, 0.000000,82.000000,1.000000,6.000000,0.500000,1.000000
KY28Zyiu,100,0, test, 7, 1, 3, 4, 2, 4, 2, 0.65, 0.45, left, 1, 0.35, 0.45, 0.55, 0.65, 0.7528178999928059, 1, 1.000000,83.000000,1.000000,6.000000,0.500000,1.000000
KY28Zyiu,100,0, test, 7, 1, 4, 1, 3, 1, 3, 0.35, 0.55, left, 1, 0.35, 0.45, 0.55, 0.65, 0.4716042999934871, 0, 1.000000,83.000000,1.000000,6.000000,0.500000,1.000000
KY28Zyiu,100,0, test, 7, 1, 5, 3, 2, 2, 3, 0.55, 0.45, right, 2, 0.35, 0.45, 0.55, 0.65, 0.3127869999880204, 1, 2.000000,84.000000,1.000000,6.000000,0.500000,1.000000
KY28Zyiu,100,0, test, 7, 1, 6, 3, 1, 1, 3, 0.55, 0.35, right, 2, 0.35, 0.45, 0.55, 0.65, 0.47616459999699146, 0, 2.000000,84.000000,1.000000,6.000000,0.500000,1.000000
KY28Zyiu,100,0, test, 7, 1, 7, 4, 3, 4, 3, 0.65, 0.55, left, 1, 0.35, 0.45, 0.55, 0.65, 0.03747930000827182, 1, 3.000000,85.000000,1.000000,6.000000,0.500000,1.000000
KY28Zyiu,100,0, test, 7, 1, 8, 2, 1, 1, 2, 0.45, 0.35, right, 2, 0.35, 0.45, 0.55, 0.65, 0.22011550000752322, 0, 3.000000,85.000000,1.000000,6.000000,0.500000,1.000000
KY28Zyiu,100,0, test, 7, 1, 9, 1, 3, 3, 1, 0.35, 0.55, right, 2, 0.35, 0.45, 0.55, 0.65, 0.4034599000005983, 1, 4.000000,86.000000,1.000000,6.000000,0.500000,1.000000
KY28Zyiu,100,0, test, 7, 1, 10, 3, 4, 4, 3, 0.55, 0.65, right, 2, 0.35, 0.45, 0.55, 0.65, 0.5195056999946246, 1, 5.000000,87.000000,1.000000,6.000000,0.500000,1.000000
KY28Zyiu,100,0, test, 7, 1, 11, 3, 1, 3, 1, 0.55, 0.35, left, 1, 0.35, 0.45, 0.55, 0.65, 0.4947820000088541, 1, 6.000000,88.000000,1.000000,6.000000,0.500000,1.000000
KY28Zyiu,100,0, test, 7, 1, 12, 1, 2, 2, 1, 0.35, 0.45, right, 2, 0.35, 0.45, 0.55, 0.65, 0.42753140001150314, 0, 6.000000,88.000000,1.000000,6.000000,0.500000,1.000000
KY28Zyiu,100,0, test, 7, 1, 13, 4, 1, 4, 1, 0.65, 0.35, left, 1, 0.35, 0.45, 0.55, 0.65, 0.5389896999986377, 0, 6.000000,88.000000,1.000000,6.000000,0.500000,1.000000
KY28Zyiu,100,0, test, 7, 1, 14, 1, 3, 1, 3, 0.35, 0.55, left, 1, 0.35, 0.45, 0.55, 0.65, 0.31743249999999534, 0, 6.000000,88.000000,1.000000,6.000000,0.500000,1.000000
KY28Zyiu,100,0, test, 7, 1, 15, 2, 4, 2, 4, 0.45, 0.65, left, 1, 0.35, 0.45, 0.55, 0.65, 1.0450323999975808, 1, 7.000000,89.000000,1.000000,6.000000,0.500000,1.000000
KY28Zyiu,100,0, test, 7, 1, 16, 1, 2, 2, 1, 0.35, 0.45, right, 2, 0.35, 0.45, 0.55, 0.65, 0.6234315000037896, 0, 7.000000,89.000000,1.000000,6.000000,0.500000,1.000000
KY28Zyiu,100,0, test, 7, 1, 17, 3, 4, 4, 3, 0.55, 0.65, right, 2, 0.35, 0.45, 0.55, 0.65, 0.9267105000035372, 0, 7.000000,89.000000,1.000000,6.000000,0.500000,1.000000
KY28Zyiu,100,0, test, 7, 1, 18, 3, 2, 3, 2, 0.55, 0.45, left, 1, 0.35, 0.45, 0.55, 0.65, 0.5020728999952553, 0, 7.000000,89.000000,1.000000,6.000000,0.500000,1.000000
KY28Zyiu,100,0, test, 7, 1, 19, 2, 3, 3, 2, 0.45, 0.55, right, 2, 0.35, 0.45, 0.55, 0.65, 0.9661601999978302, 0, 7.000000,89.000000,1.000000,6.000000,0.500000,1.000000
KY28Zyiu,100,0, test, 7, 1, 20, 3, 1, 1, 3, 0.55, 0.35, right, 2, 0.35, 0.45, 0.55, 0.65, 0.5633665000059409, 0, 7.000000,89.000000,1.000000,6.000000,0.500000,1.000000
KY28Zyiu,100,0, test, 7, 1, 21, 2, 4, 4, 2, 0.45, 0.65, right, 2, 0.35, 0.45, 0.55, 0.65, 0.7726909000048181, 1, 8.000000,90.000000,1.000000,6.000000,0.500000,1.000000
KY28Zyiu,100,0, test, 7, 1, 22, 2, 1, 1, 2, 0.45, 0.35, right, 2, 0.35, 0.45, 0.55, 0.65, 0.7019992999994429, 0, 8.000000,90.000000,1.000000,6.000000,0.500000,1.000000
KY28Zyiu,100,0, test, 7, 1, 23, 3, 4, 3, 4, 0.55, 0.65, left, 1, 0.35, 0.45, 0.55, 0.65, 0.6221400999929756, 1, 9.000000,91.000000,1.000000,6.000000,0.500000,1.000000
KY28Zyiu,100,0, test, 7, 1, 24, 3, 4, 4, 3, 0.55, 0.65, right, 2, 0.35, 0.45, 0.55, 0.65, 0.4654321000125492, 1, 10.000000,92.000000,1.000000,6.000000,0.500000,1.000000
KY28Zyiu,100,0, test, 7, 1, 25, 3, 4, 3, 4, 0.55, 0.65, left, 1, 0.35, 0.45, 0.55, 0.65, 0.3386970999999903, 1, 11.000000,93.000000,1.000000,6.000000,0.500000,1.000000
KY28Zyiu,100,0, test, 8, 7, 1, 1, 4, 1, 4, 0.35, 0.65, left, 1, 0.35, 0.45, 0.55, 0.65, 0.3411926999979187, 0, 0.000000,93.000000,1.000000,6.000000,0.500000,1.000000
KY28Zyiu,100,0, test, 8, 7, 2, 3, 2, 2, 3, 0.55, 0.45, right, 2, 0.35, 0.45, 0.55, 0.65, 0.5245914999977686, 0, 0.000000,93.000000,1.000000,6.000000,0.500000,1.000000
KY28Zyiu,100,0, test, 8, 7, 3, 4, 3, 3, 4, 0.65, 0.55, right, 2, 0.35, 0.45, 0.55, 0.65, 0.5606208999961382, 1, 1.000000,94.000000,1.000000,6.000000,0.500000,1.000000
KY28Zyiu,100,0, test, 8, 7, 4, 2, 1, 2, 1, 0.45, 0.35, left, 1, 0.35, 0.45, 0.55, 0.65, 1.0752348999958485, 1, 2.000000,95.000000,1.000000,6.000000,0.500000,1.000000
KY28Zyiu,100,0, test, 8, 7, 5, 4, 3, 3, 4, 0.65, 0.55, right, 2, 0.35, 0.45, 0.55, 0.65, 0.14913559998967685, 0, 2.000000,95.000000,1.000000,6.000000,0.500000,1.000000
KY28Zyiu,100,0, test, 8, 7, 6, 3, 4, 3, 4, 0.55, 0.65, left, 1, 0.35, 0.45, 0.55, 0.65, 0.00010109999857377261, 1, 3.000000,96.000000,1.000000,6.000000,0.500000,1.000000
KY28Zyiu,100,0, test, 8, 7, 7, 4, 1, 4, 1, 0.65, 0.35, left, 1, 0.35, 0.45, 0.55, 0.65, 1.003767100002733, 1, 4.000000,97.000000,1.000000,6.000000,0.500000,1.000000
KY28Zyiu,100,0, test, 8, 7, 8, 4, 1, 1, 4, 0.65, 0.35, right, 2, 0.35, 0.45, 0.55, 0.65, 0.7318186999909813, 1, 5.000000,98.000000,1.000000,6.000000,0.500000,1.000000
KY28Zyiu,100,0, test, 8, 7, 9, 3, 2, 3, 2, 0.55, 0.45, left, 1, 0.35, 0.45, 0.55, 0.65, 0.7103067999996711, 1, 6.000000,99.000000,1.000000,6.000000,0.500000,1.000000
KY28Zyiu,100,0, test, 8, 7, 10, 2, 1, 2, 1, 0.45, 0.35, left, 1, 0.35, 0.45, 0.55, 0.65, 0.707043699992937, 0, 6.000000,99.000000,1.000000,6.000000,0.500000,1.000000
KY28Zyiu,100,0, test, 8, 7, 11, 1, 4, 1, 4, 0.35, 0.65, left, 1, 0.35, 0.45, 0.55, 0.65, 0.7477936999930535, 0, 6.000000,99.000000,1.000000,6.000000,0.500000,1.000000
KY28Zyiu,100,0, test, 8, 7, 12, 1, 3, 1, 3, 0.35, 0.55, left, 1, 0.35, 0.45, 0.55, 0.65, 0.9010698999918532, 0, 6.000000,99.000000,1.000000,6.000000,0.500000,1.000000
KY28Zyiu,100,0, test, 8, 7, 13, 4, 3, 3, 4, 0.65, 0.55, right, 2, 0.35, 0.45, 0.55, 0.65, 1.042958499994711, 1, 7.000000,100.000000,1.000000,6.000000,0.500000,1.000000
KY28Zyiu,100,0, test, 8, 7, 14, 4, 3, 4, 3, 0.65, 0.55, left, 1, 0.35, 0.45, 0.55, 0.65, 0.48636709999118466, 1, 8.000000,101.000000,1.000000,6.000000,0.500000,1.000000
KY28Zyiu,100,0, test, 8, 7, 15, 4, 2, 2, 4, 0.65, 0.45, right, 2, 0.35, 0.45, 0.55, 0.65, 0.6315880000038305, 0, 8.000000,101.000000,1.000000,6.000000,0.500000,1.000000
KY28Zyiu,100,0, test, 8, 7, 16, 4, 3, 3, 4, 0.65, 0.55, right, 2, 0.35, 0.45, 0.55, 0.65, 0.7628630999970483, 1, 9.000000,102.000000,1.000000,6.000000,0.500000,1.000000
KY28Zyiu,100,0, test, 8, 7, 17, 2, 1, 2, 1, 0.45, 0.35, left, 1, 0.35, 0.45, 0.55, 0.65, 0.4933764000015799, 1, 10.000000,103.000000,1.000000,6.000000,0.500000,1.000000
KY28Zyiu,100,0, test, 8, 7, 18, 3, 1, 1, 3, 0.55, 0.35, right, 2, 0.35, 0.45, 0.55, 0.65, 1.4187844999978552, 1, 11.000000,104.000000,1.000000,6.000000,0.500000,1.000000
KY28Zyiu,100,0, test, 8, 7, 19, 3, 2, 2, 3, 0.55, 0.45, right, 2, 0.35, 0.45, 0.55, 0.65, 0.5382420999958413, 0, 11.000000,104.000000,1.000000,6.000000,0.500000,1.000000
KY28Zyiu,100,0, test, 8, 7, 20, 4, 3, 4, 3, 0.65, 0.55, left, 1, 0.35, 0.45, 0.55, 0.65, 0.5579852999944706, 1, 12.000000,105.000000,1.000000,6.000000,0.500000,1.000000
KY28Zyiu,100,0, test, 8, 7, 21, 1, 3, 1, 3, 0.35, 0.55, left, 1, 0.35, 0.45, 0.55, 0.65, 0.7446399000036763, 1, 13.000000,106.000000,1.000000,6.000000,0.500000,1.000000
KY28Zyiu,100,0, test, 8, 7, 22, 3, 2, 2, 3, 0.55, 0.45, right, 2, 0.35, 0.45, 0.55, 0.65, 1.0520546000043396, 1, 14.000000,107.000000,1.000000,6.000000,0.500000,1.000000
KY28Zyiu,100,0, test, 8, 7, 23, 3, 1, 1, 3, 0.55, 0.35, right, 2, 0.35, 0.45, 0.55, 0.65, 0.6026339999953052, 0, 14.000000,107.000000,1.000000,6.000000,0.500000,1.000000
KY28Zyiu,100,0, test, 8, 7, 24, 4, 3, 4, 3, 0.65, 0.55, left, 1, 0.35, 0.45, 0.55, 0.65, 0.6272610000014538, 1, 15.000000,108.000000,1.000000,6.000000,0.500000,1.000000
KY28Zyiu,100,0, test, 8, 7, 25, 3, 1, 3, 1, 0.55, 0.35, left, 1, 0.35, 0.45, 0.55, 0.65, 0.4234435999969719, 0, 15.000000,108.000000,1.000000,6.000000,0.500000,1.000000
