ShaharID, group, counterbalance, block_type, block, delay_condition, trial, chosen, unchosen, offer_left_image, offer_right_image, exp_value_chosen, exp_value_unchosen, choice_location, choice_key, exp_value1, exp_value2, exp_value3, exp_value4, RT, reward, coins_per_block, coins_per_task,ITI_duration,rt_deadline,choice_feedback_duration,outcome_duration
0DKx3BNQ,200,1, practice, 1, 1, 1, 2, 4, 4, 2, 0.45, 0.65, right, 2, 0.35, 0.45, 0.55, 0.65, 2.030496200080961, 1, 1.000000,1.000000,1.000000,6.000000,0.500000,1.000000
0DKx3BNQ,200,1, practice, 1, 1, 2, 3, 1, 3, 1, 0.55, 0.35, left, 1, 0.35, 0.45, 0.55, 0.65, 1.4738174001686275, 1, 2.000000,2.000000,1.000000,6.000000,0.500000,1.000000
0DKx3BNQ,200,1, practice, 1, 1, 3, 4, 2, 2, 4, 0.65, 0.45, right, 2, 0.35, 0.45, 0.55, 0.65, 1.1427535000257194, 1, 3.000000,3.000000,1.000000,6.000000,0.500000,1.000000
0DKx3BNQ,200,1, practice, 1, 1, 4, 3, 2, 2, 3, 0.55, 0.45, right, 2, 0.35, 0.45, 0.55, 0.65, 1.4423659997992218, 1, 4.000000,4.000000,1.000000,6.000000,0.500000,1.000000
0DKx3BNQ,200,1, practice, 1, 1, 5, 2, 1, 1, 2, 0.45, 0.35, right, 2, 0.35, 0.45, 0.55, 0.65, 1.9457574000116438, 0, 4.000000,4.000000,1.000000,6.000000,0.500000,1.000000
0DKx3BNQ,200,1, test, 1, 7, 1, 1, 2, 1, 2, 0.35, 0.45, left, 1, 0.35, 0.45, 0.55, 0.65, 0.13973809988237917, 0, 0.000000,4.000000,1.000000,6.000000,0.500000,1.000000
0DKx3BNQ,200,1, test, 1, 7, 2, 1, 4, 4, 1, 0.35, 0.65, right, 2, 0.35, 0.45, 0.55, 0.65, 1.6312037999741733, 0, 0.000000,4.000000,1.000000,6.000000,0.500000,1.000000
0DKx3BNQ,200,1, test, 1, 7, 3, 3, 4, 3, 4, 0.55, 0.65, left, 1, 0.35, 0.45, 0.55, 0.65, 1.7813447997905314, 1, 1.000000,5.000000,1.000000,6.000000,0.500000,1.000000
0DKx3BNQ,200,1, test, 1, 7, 4, 1, 4, 4, 1, 0.35, 0.65, right, 2, 0.35, 0.45, 0.55, 0.65, 1.8798169998917729, 0, 1.000000,5.000000,1.000000,6.000000,0.500000,1.000000
0DKx3BNQ,200,1, test, 1, 7, 5, 1, 4, 1, 4, 0.35, 0.65, left, 1, 0.35, 0.45, 0.55, 0.65, 1.1522771001327783, 0, 1.000000,5.000000,1.000000,6.000000,0.500000,1.000000
0DKx3BNQ,200,1, test, 1, 7, 6, 4, 1, 4, 1, 0.65, 0.35, left, 1, 0.35, 0.45, 0.55, 0.65, 1.4233685000799596, 1, 2.000000,6.000000,1.000000,6.000000,0.500000,1.000000
0DKx3BNQ,200,1, test, 1, 7, 7, 3, 1, 3, 1, 0.55, 0.35, left, 1, 0.35, 0.45, 0.55, 0.65, 1.2956459999550134, 1, 3.000000,7.000000,1.000000,6.000000,0.500000,1.000000
0DKx3BNQ,200,1, test, 1, 7, 8, 3, 4, 4, 3, 0.55, 0.65, right, 2, 0.35, 0.45, 0.55, 0.65, 1.0403789000120014, 1, 4.000000,8.000000,1.000000,6.000000,0.500000,1.000000
0DKx3BNQ,200,1, test, 1, 7, 9, 3, 4, 4, 3, 0.55, 0.65, right, 2, 0.35, 0.45, 0.55, 0.65, 0.9038063001353294, 1, 5.000000,9.000000,1.000000,6.000000,0.500000,1.000000
0DKx3BNQ,200,1, test, 1, 7, 10, 2, 4, 2, 4, 0.45, 0.65, left, 1, 0.35, 0.45, 0.55, 0.65, 0.8724658999126405, 0, 5.000000,9.000000,1.000000,6.000000,0.500000,1.000000
0DKx3BNQ,200,1, test, 1, 7, 11, 2, 3, 2, 3, 0.45, 0.55, left, 1, 0.35, 0.45, 0.55, 0.65, 1.7547037000767887, 0, 5.000000,9.000000,1.000000,6.000000,0.500000,1.000000
0DKx3BNQ,200,1, test, 1, 7, 12, 3, 1, 3, 1, 0.55, 0.35, left, 1, 0.35, 0.45, 0.55, 0.65, 1.30906100012362, 0, 5.000000,9.000000,1.000000,6.000000,0.500000,1.000000
0DKx3BNQ,200,1, test, 1, 7, 13, 3, 2, 2, 3, 0.55, 0.45, right, 2, 0.35, 0.45, 0.55, 0.65, 0.5203249999321997, 1, 6.000000,10.000000,1.000000,6.000000,0.500000,1.000000
0DKx3BNQ,200,1, test, 1, 7, 14, 3, 4, 4, 3, 0.55, 0.65, right, 2, 0.35, 0.45, 0.55, 0.65, 0.4217611998319626, 0, 6.000000,10.000000,1.000000,6.000000,0.500000,1.000000
0DKx3BNQ,200,1, test, 1, 7, 15, 3, 2, 3, 2, 0.55, 0.45, left, 1, 0.35, 0.45, 0.55, 0.65, 0.8895714001264423, 1, 7.000000,11.000000,1.000000,6.000000,0.500000,1.000000
0DKx3BNQ,200,1, test, 1, 7, 16, 3, 2, 3, 2, 0.55, 0.45, left, 1, 0.35, 0.45, 0.55, 0.65, 0.6629534000530839, 0, 7.000000,11.000000,1.000000,6.000000,0.500000,1.000000
0DKx3BNQ,200,1, test, 1, 7, 17, 2, 3, 3, 2, 0.45, 0.55, right, 2, 0.35, 0.45, 0.55, 0.65, 1.7991072998847812, 0, 7.000000,11.000000,1.000000,6.000000,0.500000,1.000000
0DKx3BNQ,200,1, test, 1, 7, 18, 4, 1, 4, 1, 0.65, 0.35, left, 1, 0.35, 0.45, 0.55, 0.65, 1.20441439980641, 0, 7.000000,11.000000,1.000000,6.000000,0.500000,1.000000
0DKx3BNQ,200,1, test, 1, 7, 19, 3, 2, 2, 3, 0.55, 0.45, right, 2, 0.35, 0.45, 0.55, 0.65, 1.2157258000224829, 1, 8.000000,12.000000,1.000000,6.000000,0.500000,1.000000
0DKx3BNQ,200,1, test, 1, 7, 20, 3, 1, 3, 1, 0.55, 0.35, left, 1, 0.35, 0.45, 0.55, 0.65, 0.7485605000983924, 1, 9.000000,13.000000,1.000000,6.000000,0.500000,1.000000
0DKx3BNQ,200,1, test, 1, 7, 21, 4, 1, 4, 1, 0.65, 0.35, left, 1, 0.35, 0.45, 0.55, 0.65, 0.9024016000330448, 0, 9.000000,13.000000,1.000000,6.000000,0.500000,1.000000
0DKx3BNQ,200,1, test, 1, 7, 22, 4, 1, 4, 1, 0.65, 0.35, left, 1, 0.35, 0.45, 0.55, 0.65, 0.5641578999347985, 1, 10.000000,14.000000,1.000000,6.000000,0.500000,1.000000
0DKx3BNQ,200,1, test, 1, 7, 23, 3, 2, 3, 2, 0.55, 0.45, left, 1, 0.35, 0.45, 0.55, 0.65, 0.5843490001279861, 0, 10.000000,14.000000,1.000000,6.000000,0.500000,1.000000
0DKx3BNQ,200,1, test, 1, 7, 24, 3, 1, 3, 1, 0.55, 0.35, left, 1, 0.35, 0.45, 0.55, 0.65, 0.6296721999533474, 1, 11.000000,15.000000,1.000000,6.000000,0.500000,1.000000
0DKx3BNQ,200,1, test, 1, 7, 25, 3, 2, 3, 2, 0.55, 0.45, left, 1, 0.35, 0.45, 0.55, 0.65, 0.35290520009584725, 0, 11.000000,15.000000,1.000000,6.000000,0.500000,1.000000
0DKx3BNQ,200,1, test, 2, 1, 1, 1, 3, 1, 3, 0.35, 0.55, left, 1, 0.35, 0.45, 0.55, 0.65, 0.6104016997851431, 0, 0.000000,15.000000,1.000000,6.000000,0.500000,1.000000
0DKx3BNQ,200,1, test, 2, 1, 2, 3, 2, 3, 2, 0.55, 0.45, left, 1, 0.35, 0.45, 0.55, 0.65, 0.7708972000982612, 1, 1.000000,16.000000,1.000000,6.000000,0.500000,1.000000
0DKx3BNQ,200,1, test, 2, 1, 3, 3, 2, 2, 3, 0.55, 0.45, right, 2, 0.35, 0.45, 0.55, 0.65, 0.8569690000731498, 1, 2.000000,17.000000,1.000000,6.000000,0.500000,1.000000
0DKx3BNQ,200,1, test, 2, 1, 4, 4, 1, 4, 1, 0.65, 0.35, left, 1, 0.35, 0.45, 0.55, 0.65, 1.1356949999462813, 0, 2.000000,17.000000,1.000000,6.000000,0.500000,1.000000
0DKx3BNQ,200,1, test, 2, 1, 5, 3, 4, 3, 4, 0.55, 0.65, left, 1, 0.35, 0.45, 0.55, 0.65, 0.8988483999855816, 0, 2.000000,17.000000,1.000000,6.000000,0.500000,1.000000
0DKx3BNQ,200,1, test, 2, 1, 6, 4, 2, 2, 4, 0.65, 0.45, right, 2, 0.35, 0.45, 0.55, 0.65, 1.1521554000210017, 0, 2.000000,17.000000,1.000000,6.000000,0.500000,1.000000
0DKx3BNQ,200,1, test, 2, 1, 7, 4, 1, 4, 1, 0.65, 0.35, left, 1, 0.35, 0.45, 0.55, 0.65, 1.3024464000482112, 1, 3.000000,18.000000,1.000000,6.000000,0.500000,1.000000
0DKx3BNQ,200,1, test, 2, 1, 8, 4, 1, 4, 1, 0.65, 0.35, left, 1, 0.35, 0.45, 0.55, 0.65, 0.6506658999715, 1, 4.000000,19.000000,1.000000,6.000000,0.500000,1.000000
0DKx3BNQ,200,1, test, 2, 1, 9, 3, 2, 3, 2, 0.55, 0.45, left, 1, 0.35, 0.45, 0.55, 0.65, 0.6982381001580507, 1, 5.000000,20.000000,1.000000,6.000000,0.500000,1.000000
0DKx3BNQ,200,1, test, 2, 1, 10, 2, 4, 2, 4, 0.45, 0.65, left, 1, 0.35, 0.45, 0.55, 0.65, 0.9128113000188023, 0, 5.000000,20.000000,1.000000,6.000000,0.500000,1.000000
0DKx3BNQ,200,1, test, 2, 1, 11, 2, 4, 4, 2, 0.45, 0.65, right, 2, 0.35, 0.45, 0.55, 0.65, 0.6422762000001967, 0, 5.000000,20.000000,1.000000,6.000000,0.500000,1.000000
0DKx3BNQ,200,1, test, 2, 1, 12, 3, 4, 4, 3, 0.55, 0.65, right, 2, 0.35, 0.45, 0.55, 0.65, 0.6982391001656651, 1, 6.000000,21.000000,1.000000,6.000000,0.500000,1.000000
0DKx3BNQ,200,1, test, 2, 1, 13, 3, 2, 3, 2, 0.55, 0.45, left, 1, 0.35, 0.45, 0.55, 0.65, 0.7093829999212176, 0, 6.000000,21.000000,1.000000,6.000000,0.500000,1.000000
0DKx3BNQ,200,1, test, 2, 1, 14, 3, 2, 2, 3, 0.55, 0.45, right, 2, 0.35, 0.45, 0.55, 0.65, 0.5581651998218149, 0, 6.000000,21.000000,1.000000,6.000000,0.500000,1.000000
0DKx3BNQ,200,1, test, 2, 1, 15, 1, 2, 1, 2, 0.35, 0.45, left, 1, 0.35, 0.45, 0.55, 0.65, 2.1888280001003295, 0, 6.000000,21.000000,1.000000,6.000000,0.500000,1.000000
0DKx3BNQ,200,1, test, 2, 1, 16, 2, 4, 2, 4, 0.45, 0.65, left, 1, 0.35, 0.45, 0.55, 0.65, 1.1942449000198394, 1, 7.000000,22.000000,1.000000,6.000000,0.500000,1.000000
0DKx3BNQ,200,1, test, 2, 1, 17, 4, 1, 1, 4, 0.65, 0.35, right, 2, 0.35, 0.45, 0.55, 0.65, 0.6112390998750925, 0, 7.000000,22.000000,1.000000,6.000000,0.500000,1.000000
0DKx3BNQ,200,1, test, 2, 1, 18, 4, 1, 1, 4, 0.65, 0.35, right, 2, 0.35, 0.45, 0.55, 0.65, 0.8399402000941336, 0, 7.000000,22.000000,1.000000,6.000000,0.500000,1.000000
0DKx3BNQ,200,1, test, 2, 1, 19, 2, 1, 1, 2, 0.45, 0.35, right, 2, 0.35, 0.45, 0.55, 0.65, 0.7330843999516219, 1, 8.000000,23.000000,1.000000,6.000000,0.500000,1.000000
0DKx3BNQ,200,1, test, 2, 1, 20, 3, 4, 4, 3, 0.55, 0.65, right, 2, 0.35, 0.45, 0.55, 0.65, 0.5355064999312162, 1, 9.000000,24.000000,1.000000,6.000000,0.500000,1.000000
0DKx3BNQ,200,1, test, 2, 1, 21, 3, 4, 4, 3, 0.55, 0.65, right, 2, 0.35, 0.45, 0.55, 0.65, 0.3594213000033051, 1, 10.000000,25.000000,1.000000,6.000000,0.500000,1.000000
0DKx3BNQ,200,1, test, 2, 1, 22, 4, 1, 4, 1, 0.65, 0.35, left, 1, 0.35, 0.45, 0.55, 0.65, 1.008548399899155, 0, 10.000000,25.000000,1.000000,6.000000,0.500000,1.000000
0DKx3BNQ,200,1, test, 2, 1, 23, 4, 2, 2, 4, 0.65, 0.45, right, 2, 0.35, 0.45, 0.55, 0.65, 0.9386093998327851, 1, 11.000000,26.000000,1.000000,6.000000,0.500000,1.000000
0DKx3BNQ,200,1, test, 2, 1, 24, 4, 1, 4, 1, 0.65, 0.35, left, 1, 0.35, 0.45, 0.55, 0.65, 1.3652910999953747, 1, 12.000000,27.000000,1.000000,6.000000,0.500000,1.000000
0DKx3BNQ,200,1, test, 2, 1, 25, 2, 1, 1, 2, 0.45, 0.35, right, 2, 0.35, 0.45, 0.55, 0.65, 0.8561239999253303, 1, 13.000000,28.000000,1.000000,6.000000,0.500000,1.000000
0DKx3BNQ,200,1, test, 3, 7, 1, 3, 4, 3, 4, 0.55, 0.65, left, 1, 0.35, 0.45, 0.55, 0.65, 0.5658939001150429, 1, 1.000000,29.000000,1.000000,6.000000,0.500000,1.000000
0DKx3BNQ,200,1, test, 3, 7, 2, 1, 2, 2, 1, 0.35, 0.45, right, 2, 0.35, 0.45, 0.55, 0.65, 0.6644942001439631, 1, 2.000000,30.000000,1.000000,6.000000,0.500000,1.000000
0DKx3BNQ,200,1, test, 3, 7, 3, 1, 2, 1, 2, 0.35, 0.45, left, 1, 0.35, 0.45, 0.55, 0.65, 0.31149229989387095, 0, 2.000000,30.000000,1.000000,6.000000,0.500000,1.000000
0DKx3BNQ,200,1, test, 3, 7, 4, 3, 2, 3, 2, 0.55, 0.45, left, 1, 0.35, 0.45, 0.55, 0.65, 0.8994555999524891, 0, 2.000000,30.000000,1.000000,6.000000,0.500000,1.000000
0DKx3BNQ,200,1, test, 3, 7, 5, 4, 1, 1, 4, 0.65, 0.35, right, 2, 0.35, 0.45, 0.55, 0.65, 0.8233533001039177, 1, 3.000000,31.000000,1.000000,6.000000,0.500000,1.000000
0DKx3BNQ,200,1, test, 3, 7, 6, 4, 3, 4, 3, 0.65, 0.55, left, 1, 0.35, 0.45, 0.55, 0.65, 0.7638648999854922, 0, 3.000000,31.000000,1.000000,6.000000,0.500000,1.000000
0DKx3BNQ,200,1, test, 3, 7, 7, 4, 2, 2, 4, 0.65, 0.45, right, 2, 0.35, 0.45, 0.55, 0.65, 0.6385100998450071, 1, 4.000000,32.000000,1.000000,6.000000,0.500000,1.000000
0DKx3BNQ,200,1, test, 3, 7, 8, 3, 2, 2, 3, 0.55, 0.45, right, 2, 0.35, 0.45, 0.55, 0.65, 0.46453909995034337, 1, 5.000000,33.000000,1.000000,6.000000,0.500000,1.000000
0DKx3BNQ,200,1, test, 3, 7, 9, 3, 2, 3, 2, 0.55, 0.45, left, 1, 0.35, 0.45, 0.55, 0.65, 0.382519300095737, 1, 6.000000,34.000000,1.000000,6.000000,0.500000,1.000000
0DKx3BNQ,200,1, test, 3, 7, 10, 3, 2, 3, 2, 0.55, 0.45, left, 1, 0.35, 0.45, 0.55, 0.65, 0.3798215000424534, 0, 6.000000,34.000000,1.000000,6.000000,0.500000,1.000000
0DKx3BNQ,200,1, test, 3, 7, 11, 1, 2, 1, 2, 0.35, 0.45, left, 1, 0.35, 0.45, 0.55, 0.65, 0.7616709000431001, 0, 6.000000,34.000000,1.000000,6.000000,0.500000,1.000000
0DKx3BNQ,200,1, test, 3, 7, 12, 3, 2, 3, 2, 0.55, 0.45, left, 1, 0.35, 0.45, 0.55, 0.65, 0.3974853998515755, 0, 6.000000,34.000000,1.000000,6.000000,0.500000,1.000000
0DKx3BNQ,200,1, test, 3, 7, 13, 1, 4, 1, 4, 0.35, 0.65, left, 1, 0.35, 0.45, 0.55, 0.65, 1.1045470000244677, 0, 6.000000,34.000000,1.000000,6.000000,0.500000,1.000000
0DKx3BNQ,200,1, test, 3, 7, 14, 2, 1, 2, 1, 0.45, 0.35, left, 1, 0.35, 0.45, 0.55, 0.65, 1.4458757999818772, 0, 6.000000,34.000000,1.000000,6.000000,0.500000,1.000000
0DKx3BNQ,200,1, test, 3, 7, 15, 3, 4, 4, 3, 0.55, 0.65, right, 2, 0.35, 0.45, 0.55, 0.65, 0.6842656000517309, 1, 7.000000,35.000000,1.000000,6.000000,0.500000,1.000000
0DKx3BNQ,200,1, test, 3, 7, 16, 3, 4, 4, 3, 0.55, 0.65, right, 2, 0.35, 0.45, 0.55, 0.65, 0.49381509982049465, 0, 7.000000,35.000000,1.000000,6.000000,0.500000,1.000000
0DKx3BNQ,200,1, test, 3, 7, 17, 3, 4, 3, 4, 0.55, 0.65, left, 1, 0.35, 0.45, 0.55, 0.65, 0.3677709000185132, 0, 7.000000,35.000000,1.000000,6.000000,0.500000,1.000000
0DKx3BNQ,200,1, test, 3, 7, 18, 4, 2, 4, 2, 0.65, 0.45, left, 1, 0.35, 0.45, 0.55, 0.65, 0.8167646999936551, 1, 8.000000,36.000000,1.000000,6.000000,0.500000,1.000000
0DKx3BNQ,200,1, test, 3, 7, 19, 4, 2, 4, 2, 0.65, 0.45, left, 1, 0.35, 0.45, 0.55, 0.65, 0.5456067000050098, 1, 9.000000,37.000000,1.000000,6.000000,0.500000,1.000000
0DKx3BNQ,200,1, test, 3, 7, 20, 3, 4, 4, 3, 0.55, 0.65, right, 2, 0.35, 0.45, 0.55, 0.65, 0.5993165001273155, 1, 10.000000,38.000000,1.000000,6.000000,0.500000,1.000000
0DKx3BNQ,200,1, test, 3, 7, 21, 3, 4, 4, 3, 0.55, 0.65, right, 2, 0.35, 0.45, 0.55, 0.65, 0.5319231001194566, 0, 10.000000,38.000000,1.000000,6.000000,0.500000,1.000000
0DKx3BNQ,200,1, test, 3, 7, 22, 2, 1, 1, 2, 0.45, 0.35, right, 2, 0.35, 0.45, 0.55, 0.65, 0.9878370999358594, 1, 11.000000,39.000000,1.000000,6.000000,0.500000,1.000000
0DKx3BNQ,200,1, test, 3, 7, 23, 3, 2, 3, 2, 0.55, 0.45, left, 1, 0.35, 0.45, 0.55, 0.65, 0.7481564998161048, 0, 11.000000,39.000000,1.000000,6.000000,0.500000,1.000000
0DKx3BNQ,200,1, test, 3, 7, 24, 2, 1, 2, 1, 0.45, 0.35, left, 1, 0.35, 0.45, 0.55, 0.65, 0.7642646001186222, 1, 12.000000,40.000000,1.000000,6.000000,0.500000,1.000000
0DKx3BNQ,200,1, test, 3, 7, 25, 2, 4, 2, 4, 0.45, 0.65, left, 1, 0.35, 0.45, 0.55, 0.65, 0.5221584001556039, 0, 12.000000,40.000000,1.000000,6.000000,0.500000,1.000000
0DKx3BNQ,200,1, test, 4, 1, 1, 4, 2, 2, 4, 0.65, 0.45, right, 2, 0.35, 0.45, 0.55, 0.65, 0.7659044999163598, 1, 1.000000,41.000000,1.000000,6.000000,0.500000,1.000000
0DKx3BNQ,200,1, test, 4, 1, 2, 4, 2, 4, 2, 0.65, 0.45, left, 1, 0.35, 0.45, 0.55, 0.65, 0.4269215001258999, 0, 1.000000,41.000000,1.000000,6.000000,0.500000,1.000000
0DKx3BNQ,200,1, test, 4, 1, 3, 1, 2, 1, 2, 0.35, 0.45, left, 1, 0.35, 0.45, 0.55, 0.65, 0.5944004999473691, 0, 1.000000,41.000000,1.000000,6.000000,0.500000,1.000000
0DKx3BNQ,200,1, test, 4, 1, 4, 1, 4, 4, 1, 0.35, 0.65, right, 2, 0.35, 0.45, 0.55, 0.65, 0.5732643001247197, 0, 1.000000,41.000000,1.000000,6.000000,0.500000,1.000000
0DKx3BNQ,200,1, test, 4, 1, 5, 3, 2, 3, 2, 0.55, 0.45, left, 1, 0.35, 0.45, 0.55, 0.65, 0.7977899999823421, 1, 2.000000,42.000000,1.000000,6.000000,0.500000,1.000000
0DKx3BNQ,200,1, test, 4, 1, 6, 1, 4, 4, 1, 0.35, 0.65, right, 2, 0.35, 0.45, 0.55, 0.65, 0.6916332999244332, 0, 2.000000,42.000000,1.000000,6.000000,0.500000,1.000000
0DKx3BNQ,200,1, test, 4, 1, 7, 2, 1, 2, 1, 0.45, 0.35, left, 1, 0.35, 0.45, 0.55, 0.65, 1.1236972000915557, 1, 3.000000,43.000000,1.000000,6.000000,0.500000,1.000000
0DKx3BNQ,200,1, test, 4, 1, 8, 3, 1, 3, 1, 0.55, 0.35, left, 1, 0.35, 0.45, 0.55, 0.65, 1.380408399971202, 0, 3.000000,43.000000,1.000000,6.000000,0.500000,1.000000
0DKx3BNQ,200,1, test, 4, 1, 9, 2, 1, 1, 2, 0.45, 0.35, right, 2, 0.35, 0.45, 0.55, 0.65, 0.7904909001663327, 0, 3.000000,43.000000,1.000000,6.000000,0.500000,1.000000
0DKx3BNQ,200,1, test, 4, 1, 10, 3, 2, 2, 3, 0.55, 0.45, right, 2, 0.35, 0.45, 0.55, 0.65, 0.8674810000229627, 1, 4.000000,44.000000,1.000000,6.000000,0.500000,1.000000
0DKx3BNQ,200,1, test, 4, 1, 11, 3, 2, 2, 3, 0.55, 0.45, right, 2, 0.35, 0.45, 0.55, 0.65, 0.38994000013917685, 1, 5.000000,45.000000,1.000000,6.000000,0.500000,1.000000
0DKx3BNQ,200,1, test, 4, 1, 12, 3, 4, 4, 3, 0.55, 0.65, right, 2, 0.35, 0.45, 0.55, 0.65, 0.3658350999467075, 1, 6.000000,46.000000,1.000000,6.000000,0.500000,1.000000
0DKx3BNQ,200,1, test, 4, 1, 13, 1, 4, 4, 1, 0.35, 0.65, right, 2, 0.35, 0.45, 0.55, 0.65, 1.108241899870336, 0, 6.000000,46.000000,1.000000,6.000000,0.500000,1.000000
0DKx3BNQ,200,1, test, 4, 1, 14, 2, 1, 1, 2, 0.45, 0.35, right, 2, 0.35, 0.45, 0.55, 0.65, 1.1167933999095112, 0, 6.000000,46.000000,1.000000,6.000000,0.500000,1.000000
0DKx3BNQ,200,1, test, 4, 1, 15, 1, 4, 1, 4, 0.35, 0.65, left, 1, 0.35, 0.45, 0.55, 0.65, 0.8969409998971969, 0, 6.000000,46.000000,1.000000,6.000000,0.500000,1.000000
0DKx3BNQ,200,1, test, 4, 1, 16, 4, 1, 4, 1, 0.65, 0.35, left, 1, 0.35, 0.45, 0.55, 0.65, 0.5094677000306547, 1, 7.000000,47.000000,1.000000,6.000000,0.500000,1.000000
0DKx3BNQ,200,1, test, 4, 1, 17, 3, 1, 1, 3, 0.55, 0.35, right, 2, 0.35, 0.45, 0.55, 0.65, 0.8231901999097317, 0, 7.000000,47.000000,1.000000,6.000000,0.500000,1.000000
0DKx3BNQ,200,1, test, 4, 1, 18, 4, 1, 1, 4, 0.65, 0.35, right, 2, 0.35, 0.45, 0.55, 0.65, 0.39399600005708635, 1, 8.000000,48.000000,1.000000,6.000000,0.500000,1.000000
0DKx3BNQ,200,1, test, 4, 1, 19, 3, 4, 4, 3, 0.55, 0.65, right, 2, 0.35, 0.45, 0.55, 0.65, 0.5798021000809968, 1, 9.000000,49.000000,1.000000,6.000000,0.500000,1.000000
0DKx3BNQ,200,1, test, 4, 1, 20, 4, 1, 4, 1, 0.65, 0.35, left, 1, 0.35, 0.45, 0.55, 0.65, 0.8489448998589069, 0, 9.000000,49.000000,1.000000,6.000000,0.500000,1.000000
0DKx3BNQ,200,1, test, 4, 1, 21, 3, 2, 3, 2, 0.55, 0.45, left, 1, 0.35, 0.45, 0.55, 0.65, 0.7077703000977635, 0, 9.000000,49.000000,1.000000,6.000000,0.500000,1.000000
0DKx3BNQ,200,1, test, 4, 1, 22, 2, 1, 2, 1, 0.45, 0.35, left, 1, 0.35, 0.45, 0.55, 0.65, 1.341030100127682, 1, 10.000000,50.000000,1.000000,6.000000,0.500000,1.000000
0DKx3BNQ,200,1, test, 4, 1, 23, 3, 2, 3, 2, 0.55, 0.45, left, 1, 0.35, 0.45, 0.55, 0.65, 0.7717934001702815, 0, 10.000000,50.000000,1.000000,6.000000,0.500000,1.000000
0DKx3BNQ,200,1, test, 4, 1, 24, 3, 1, 1, 3, 0.55, 0.35, right, 2, 0.35, 0.45, 0.55, 0.65, 0.5626854000147432, 1, 11.000000,51.000000,1.000000,6.000000,0.500000,1.000000
0DKx3BNQ,200,1, test, 4, 1, 25, 2, 4, 2, 4, 0.45, 0.65, left, 1, 0.35, 0.45, 0.55, 0.65, 0.5590764000080526, 0, 11.000000,51.000000,1.000000,6.000000,0.500000,1.000000
0DKx3BNQ,200,1, test, 5, 7, 1, 1, 3, 1, 3, 0.35, 0.55, left, 1, 0.35, 0.45, 0.55, 0.65, 0.6135441998485476, 1, 1.000000,52.000000,1.000000,6.000000,0.500000,1.000000
0DKx3BNQ,200,1, test, 5, 7, 2, 3, 2, 2, 3, 0.55, 0.45, right, 2, 0.35, 0.45, 0.55, 0.65, 0.6333916001021862, 0, 1.000000,52.000000,1.000000,6.000000,0.500000,1.000000
0DKx3BNQ,200,1, test, 5, 7, 3, 2, 3, 3, 2, 0.45, 0.55, right, 2, 0.35, 0.45, 0.55, 0.65, 0.5848843001294881, 0, 1.000000,52.000000,1.000000,6.000000,0.500000,1.000000
0DKx3BNQ,200,1, test, 5, 7, 4, 1, 4, 1, 4, 0.35, 0.65, left, 1, 0.35, 0.45, 0.55, 0.65, 0.6179372000042349, 0, 1.000000,52.000000,1.000000,6.000000,0.500000,1.000000
0DKx3BNQ,200,1, test, 5, 7, 5, 2, 3, 3, 2, 0.45, 0.55, right, 2, 0.35, 0.45, 0.55, 0.65, 0.8751236000098288, 0, 1.000000,52.000000,1.000000,6.000000,0.500000,1.000000
0DKx3BNQ,200,1, test, 5, 7, 6, 2, 3, 3, 2, 0.45, 0.55, right, 2, 0.35, 0.45, 0.55, 0.65, 0.679513799957931, 1, 2.000000,53.000000,1.000000,6.000000,0.500000,1.000000
0DKx3BNQ,200,1, test, 5, 7, 7, 2, 3, 3, 2, 0.45, 0.55, right, 2, 0.35, 0.45, 0.55, 0.65, 0.6136680000927299, 1, 3.000000,54.000000,1.000000,6.000000,0.500000,1.000000
0DKx3BNQ,200,1, test, 5, 7, 8, 4, 2, 2, 4, 0.65, 0.45, right, 2, 0.35, 0.45, 0.55, 0.65, 0.3455668999813497, 1, 4.000000,55.000000,1.000000,6.000000,0.500000,1.000000
0DKx3BNQ,200,1, test, 5, 7, 9, 4, 3, 3, 4, 0.65, 0.55, right, 2, 0.35, 0.45, 0.55, 0.65, 0.3168206000700593, 0, 4.000000,55.000000,1.000000,6.000000,0.500000,1.000000
0DKx3BNQ,200,1, test, 5, 7, 10, 2, 3, 2, 3, 0.45, 0.55, left, 1, 0.35, 0.45, 0.55, 0.65, 0.8846299001015723, 0, 4.000000,55.000000,1.000000,6.000000,0.500000,1.000000
0DKx3BNQ,200,1, test, 5, 7, 11, 4, 1, 4, 1, 0.65, 0.35, left, 1, 0.35, 0.45, 0.55, 0.65, 0.4327527000568807, 0, 4.000000,55.000000,1.000000,6.000000,0.500000,1.000000
0DKx3BNQ,200,1, test, 5, 7, 12, 4, 2, 2, 4, 0.65, 0.45, right, 2, 0.35, 0.45, 0.55, 0.65, 0.3080891000572592, 1, 5.000000,56.000000,1.000000,6.000000,0.500000,1.000000
0DKx3BNQ,200,1, test, 5, 7, 13, 4, 3, 3, 4, 0.65, 0.55, right, 2, 0.35, 0.45, 0.55, 0.65, 0.2894001000095159, 0, 5.000000,56.000000,1.000000,6.000000,0.500000,1.000000
0DKx3BNQ,200,1, test, 5, 7, 14, 2, 3, 3, 2, 0.45, 0.55, right, 2, 0.35, 0.45, 0.55, 0.65, 0.5818080001045018, 0, 5.000000,56.000000,1.000000,6.000000,0.500000,1.000000
0DKx3BNQ,200,1, test, 5, 7, 15, 4, 2, 2, 4, 0.65, 0.45, right, 2, 0.35, 0.45, 0.55, 0.65, 0.3647920999210328, 1, 6.000000,57.000000,1.000000,6.000000,0.500000,1.000000
0DKx3BNQ,200,1, test, 5, 7, 16, 2, 3, 2, 3, 0.45, 0.55, left, 1, 0.35, 0.45, 0.55, 0.65, 0.5972054000012577, 1, 7.000000,58.000000,1.000000,6.000000,0.500000,1.000000
0DKx3BNQ,200,1, test, 5, 7, 17, 4, 3, 4, 3, 0.65, 0.55, left, 1, 0.35, 0.45, 0.55, 0.65, 0.32227259990759194, 1, 8.000000,59.000000,1.000000,6.000000,0.500000,1.000000
0DKx3BNQ,200,1, test, 5, 7, 18, 4, 2, 2, 4, 0.65, 0.45, right, 2, 0.35, 0.45, 0.55, 0.65, 0.331260500010103, 1, 9.000000,60.000000,1.000000,6.000000,0.500000,1.000000
0DKx3BNQ,200,1, test, 5, 7, 19, 4, 2, 2, 4, 0.65, 0.45, right, 2, 0.35, 0.45, 0.55, 0.65, 0.32183009991422296, 1, 10.000000,61.000000,1.000000,6.000000,0.500000,1.000000
0DKx3BNQ,200,1, test, 5, 7, 20, 1, 3, 1, 3, 0.35, 0.55, left, 1, 0.35, 0.45, 0.55, 0.65, 0.34965609991922975, 0, 10.000000,61.000000,1.000000,6.000000,0.500000,1.000000
0DKx3BNQ,200,1, test, 5, 7, 21, 1, 3, 3, 1, 0.35, 0.55, right, 2, 0.35, 0.45, 0.55, 0.65, 0.664365499978885, 0, 10.000000,61.000000,1.000000,6.000000,0.500000,1.000000
0DKx3BNQ,200,1, test, 5, 7, 22, 1, 3, 1, 3, 0.35, 0.55, left, 1, 0.35, 0.45, 0.55, 0.65, 0.5427486998960376, 0, 10.000000,61.000000,1.000000,6.000000,0.500000,1.000000
0DKx3BNQ,200,1, test, 5, 7, 23, 1, 3, 3, 1, 0.35, 0.55, right, 2, 0.35, 0.45, 0.55, 0.65, 0.4581369000952691, 1, 11.000000,62.000000,1.000000,6.000000,0.500000,1.000000
0DKx3BNQ,200,1, test, 5, 7, 24, 4, 2, 2, 4, 0.65, 0.45, right, 2, 0.35, 0.45, 0.55, 0.65, 0.31315160007216036, 0, 11.000000,62.000000,1.000000,6.000000,0.500000,1.000000
0DKx3BNQ,200,1, test, 5, 7, 25, 4, 2, 4, 2, 0.65, 0.45, left, 1, 0.35, 0.45, 0.55, 0.65, 0.3360703999642283, 1, 12.000000,63.000000,1.000000,6.000000,0.500000,1.000000
0DKx3BNQ,200,1, test, 6, 1, 1, 3, 1, 1, 3, 0.55, 0.35, right, 2, 0.35, 0.45, 0.55, 0.65, 0.8096974000800401, 1, 1.000000,64.000000,1.000000,6.000000,0.500000,1.000000
0DKx3BNQ,200,1, test, 6, 1, 2, 3, 2, 2, 3, 0.55, 0.45, right, 2, 0.35, 0.45, 0.55, 0.65, 0.3667923000175506, 0, 1.000000,64.000000,1.000000,6.000000,0.500000,1.000000
0DKx3BNQ,200,1, test, 6, 1, 3, 3, 4, 3, 4, 0.55, 0.65, left, 1, 0.35, 0.45, 0.55, 0.65, 0.40446049999445677, 1, 2.000000,65.000000,1.000000,6.000000,0.500000,1.000000
0DKx3BNQ,200,1, test, 6, 1, 4, 3, 4, 3, 4, 0.55, 0.65, left, 1, 0.35, 0.45, 0.55, 0.65, 0.6697460000868887, 1, 3.000000,66.000000,1.000000,6.000000,0.500000,1.000000
0DKx3BNQ,200,1, test, 6, 1, 5, 2, 1, 2, 1, 0.45, 0.35, left, 1, 0.35, 0.45, 0.55, 0.65, 0.5268511001486331, 0, 3.000000,66.000000,1.000000,6.000000,0.500000,1.000000
0DKx3BNQ,200,1, test, 6, 1, 6, 2, 1, 1, 2, 0.45, 0.35, right, 2, 0.35, 0.45, 0.55, 0.65, 0.30416579986922443, 1, 4.000000,67.000000,1.000000,6.000000,0.500000,1.000000
0DKx3BNQ,200,1, test, 6, 1, 7, 2, 1, 2, 1, 0.45, 0.35, left, 1, 0.35, 0.45, 0.55, 0.65, 0.3804903000127524, 1, 5.000000,68.000000,1.000000,6.000000,0.500000,1.000000
0DKx3BNQ,200,1, test, 6, 1, 8, 1, 4, 4, 1, 0.35, 0.65, right, 2, 0.35, 0.45, 0.55, 0.65, 0.8902259001042694, 0, 5.000000,68.000000,1.000000,6.000000,0.500000,1.000000
0DKx3BNQ,200,1, test, 6, 1, 9, 3, 4, 4, 3, 0.55, 0.65, right, 2, 0.35, 0.45, 0.55, 0.65, 0.6750882999040186, 0, 5.000000,68.000000,1.000000,6.000000,0.500000,1.000000
0DKx3BNQ,200,1, test, 6, 1, 10, 3, 4, 4, 3, 0.55, 0.65, right, 2, 0.35, 0.45, 0.55, 0.65, 0.4159113001078367, 1, 6.000000,69.000000,1.000000,6.000000,0.500000,1.000000
0DKx3BNQ,200,1, test, 6, 1, 11, 1, 4, 4, 1, 0.35, 0.65, right, 2, 0.35, 0.45, 0.55, 0.65, 1.176765700103715, 0, 6.000000,69.000000,1.000000,6.000000,0.500000,1.000000
0DKx3BNQ,200,1, test, 6, 1, 12, 1, 2, 1, 2, 0.35, 0.45, left, 1, 0.35, 0.45, 0.55, 0.65, 0.36723600002005696, 0, 6.000000,69.000000,1.000000,6.000000,0.500000,1.000000
0DKx3BNQ,200,1, test, 6, 1, 13, 3, 1, 3, 1, 0.55, 0.35, left, 1, 0.35, 0.45, 0.55, 0.65, 0.6800214000977576, 1, 7.000000,70.000000,1.000000,6.000000,0.500000,1.000000
0DKx3BNQ,200,1, test, 6, 1, 14, 1, 4, 1, 4, 0.35, 0.65, left, 1, 0.35, 0.45, 0.55, 0.65, 1.2286300000268966, 0, 7.000000,70.000000,1.000000,6.000000,0.500000,1.000000
0DKx3BNQ,200,1, test, 6, 1, 15, 2, 3, 2, 3, 0.45, 0.55, left, 1, 0.35, 0.45, 0.55, 0.65, 0.5418831000570208, 0, 7.000000,70.000000,1.000000,6.000000,0.500000,1.000000
0DKx3BNQ,200,1, test, 6, 1, 16, 2, 1, 1, 2, 0.45, 0.35, right, 2, 0.35, 0.45, 0.55, 0.65, 0.25991140003316104, 1, 8.000000,71.000000,1.000000,6.000000,0.500000,1.000000
0DKx3BNQ,200,1, test, 6, 1, 17, 3, 4, 3, 4, 0.55, 0.65, left, 1, 0.35, 0.45, 0.55, 0.65, 0.5473823000211269, 1, 9.000000,72.000000,1.000000,6.000000,0.500000,1.000000
0DKx3BNQ,200,1, test, 6, 1, 18, 3, 1, 1, 3, 0.55, 0.35, right, 2, 0.35, 0.45, 0.55, 0.65, 1.1457669998053461, 1, 10.000000,73.000000,1.000000,6.000000,0.500000,1.000000
0DKx3BNQ,200,1, test, 6, 1, 19, 2, 3, 2, 3, 0.45, 0.55, left, 1, 0.35, 0.45, 0.55, 0.65, 0.2963552000001073, 1, 11.000000,74.000000,1.000000,6.000000,0.500000,1.000000
0DKx3BNQ,200,1, test, 6, 1, 20, 3, 4, 3, 4, 0.55, 0.65, left, 1, 0.35, 0.45, 0.55, 0.65, 0.6131192999891937, 0, 11.000000,74.000000,1.000000,6.000000,0.500000,1.000000
0DKx3BNQ,200,1, test, 6, 1, 21, 2, 3, 3, 2, 0.45, 0.55, right, 2, 0.35, 0.45, 0.55, 0.65, 0.2621208999771625, 0, 11.000000,74.000000,1.000000,6.000000,0.500000,1.000000
0DKx3BNQ,200,1, test, 6, 1, 22, 2, 3, 2, 3, 0.45, 0.55, left, 1, 0.35, 0.45, 0.55, 0.65, 0.2770030000247061, 1, 12.000000,75.000000,1.000000,6.000000,0.500000,1.000000
0DKx3BNQ,200,1, test, 6, 1, 23, 3, 4, 4, 3, 0.55, 0.65, right, 2, 0.35, 0.45, 0.55, 0.65, 0.49824520014226437, 1, 13.000000,76.000000,1.000000,6.000000,0.500000,1.000000
0DKx3BNQ,200,1, test, 6, 1, 24, 2, 3, 3, 2, 0.45, 0.55, right, 2, 0.35, 0.45, 0.55, 0.65, 0.2989339998457581, 1, 14.000000,77.000000,1.000000,6.000000,0.500000,1.000000
0DKx3BNQ,200,1, test, 6, 1, 25, 3, 4, 3, 4, 0.55, 0.65, left, 1, 0.35, 0.45, 0.55, 0.65, 0.5477575999684632, 1, 15.000000,78.000000,1.000000,6.000000,0.500000,1.000000
0DKx3BNQ,200,1, test, 7, 7, 1, 3, 1, 1, 3, 0.55, 0.35, right, 2, 0.35, 0.45, 0.55, 0.65, 0.4574076000135392, 0, 0.000000,78.000000,1.000000,6.000000,0.500000,1.000000
0DKx3BNQ,200,1, test, 7, 7, 2, 3, 4, 4, 3, 0.55, 0.65, right, 2, 0.35, 0.45, 0.55, 0.65, 0.6211508000269532, 1, 1.000000,79.000000,1.000000,6.000000,0.500000,1.000000
0DKx3BNQ,200,1, test, 7, 7, 3, 2, 4, 2, 4, 0.45, 0.65, left, 1, 0.35, 0.45, 0.55, 0.65, 0.780141499824822, 0, 1.000000,79.000000,1.000000,6.000000,0.500000,1.000000
0DKx3BNQ,200,1, test, 7, 7, 4, 2, 3, 2, 3, 0.45, 0.55, left, 1, 0.35, 0.45, 0.55, 0.65, 0.48888189997524023, 0, 1.000000,79.000000,1.000000,6.000000,0.500000,1.000000
0DKx3BNQ,200,1, test, 7, 7, 5, 3, 1, 1, 3, 0.55, 0.35, right, 2, 0.35, 0.45, 0.55, 0.65, 0.4663989001419395, 1, 2.000000,80.000000,1.000000,6.000000,0.500000,1.000000
0DKx3BNQ,200,1, test, 7, 7, 6, 2, 1, 1, 2, 0.45, 0.35, right, 2, 0.35, 0.45, 0.55, 0.65, 0.729315800126642, 0, 2.000000,80.000000,1.000000,6.000000,0.500000,1.000000
0DKx3BNQ,200,1, test, 7, 7, 7, 3, 4, 3, 4, 0.55, 0.65, left, 1, 0.35, 0.45, 0.55, 0.65, 0.4646816998720169, 1, 3.000000,81.000000,1.000000,6.000000,0.500000,1.000000
0DKx3BNQ,200,1, test, 7, 7, 8, 3, 1, 3, 1, 0.55, 0.35, left, 1, 0.35, 0.45, 0.55, 0.65, 0.46249289996922016, 0, 3.000000,81.000000,1.000000,6.000000,0.500000,1.000000
0DKx3BNQ,200,1, test, 7, 7, 9, 3, 1, 1, 3, 0.55, 0.35, right, 2, 0.35, 0.45, 0.55, 0.65, 0.5876084000337869, 0, 3.000000,81.000000,1.000000,6.000000,0.500000,1.000000
0DKx3BNQ,200,1, test, 7, 7, 10, 3, 2, 2, 3, 0.55, 0.45, right, 2, 0.35, 0.45, 0.55, 0.65, 0.31832639989443123, 1, 4.000000,82.000000,1.000000,6.000000,0.500000,1.000000
0DKx3BNQ,200,1, test, 7, 7, 11, 3, 4, 3, 4, 0.55, 0.65, left, 1, 0.35, 0.45, 0.55, 0.65, 0.3015270000323653, 1, 5.000000,83.000000,1.000000,6.000000,0.500000,1.000000
0DKx3BNQ,200,1, test, 7, 7, 12, 3, 2, 2, 3, 0.55, 0.45, right, 2, 0.35, 0.45, 0.55, 0.65, 0.297977700131014, 0, 5.000000,83.000000,1.000000,6.000000,0.500000,1.000000
0DKx3BNQ,200,1, test, 7, 7, 13, 3, 1, 1, 3, 0.55, 0.35, right, 2, 0.35, 0.45, 0.55, 0.65, 0.243726700078696, 0, 5.000000,83.000000,1.000000,6.000000,0.500000,1.000000
0DKx3BNQ,200,1, test, 7, 7, 14, 3, 2, 3, 2, 0.55, 0.45, left, 1, 0.35, 0.45, 0.55, 0.65, 0.2981292998883873, 1, 6.000000,84.000000,1.000000,6.000000,0.500000,1.000000
0DKx3BNQ,200,1, test, 7, 7, 15, 4, 2, 4, 2, 0.65, 0.45, left, 1, 0.35, 0.45, 0.55, 0.65, 0.9150308999232948, 0, 6.000000,84.000000,1.000000,6.000000,0.500000,1.000000
0DKx3BNQ,200,1, test, 7, 7, 16, 4, 2, 2, 4, 0.65, 0.45, right, 2, 0.35, 0.45, 0.55, 0.65, 0.8308857001829892, 1, 7.000000,85.000000,1.000000,6.000000,0.500000,1.000000
0DKx3BNQ,200,1, test, 7, 7, 17, 3, 2, 3, 2, 0.55, 0.45, left, 1, 0.35, 0.45, 0.55, 0.65, 0.5531057000625879, 1, 8.000000,86.000000,1.000000,6.000000,0.500000,1.000000
0DKx3BNQ,200,1, test, 7, 7, 18, 1, 2, 2, 1, 0.35, 0.45, right, 2, 0.35, 0.45, 0.55, 0.65, 0.847950299968943, 1, 9.000000,87.000000,1.000000,6.000000,0.500000,1.000000
0DKx3BNQ,200,1, test, 7, 7, 19, 3, 4, 4, 3, 0.55, 0.65, right, 2, 0.35, 0.45, 0.55, 0.65, 0.2596458001062274, 0, 9.000000,87.000000,1.000000,6.000000,0.500000,1.000000
0DKx3BNQ,200,1, test, 7, 7, 20, 3, 4, 4, 3, 0.55, 0.65, right, 2, 0.35, 0.45, 0.55, 0.65, 0.29325519991107285, 1, 10.000000,88.000000,1.000000,6.000000,0.500000,1.000000
0DKx3BNQ,200,1, test, 7, 7, 21, 3, 2, 3, 2, 0.55, 0.45, left, 1, 0.35, 0.45, 0.55, 0.65, 0.6202481999062002, 0, 10.000000,88.000000,1.000000,6.000000,0.500000,1.000000
0DKx3BNQ,200,1, test, 7, 7, 22, 3, 4, 4, 3, 0.55, 0.65, right, 2, 0.35, 0.45, 0.55, 0.65, 0.2668458998668939, 0, 10.000000,88.000000,1.000000,6.000000,0.500000,1.000000
0DKx3BNQ,200,1, test, 7, 7, 23, 2, 4, 2, 4, 0.45, 0.65, left, 1, 0.35, 0.45, 0.55, 0.65, 0.6181999000255018, 0, 10.000000,88.000000,1.000000,6.000000,0.500000,1.000000
0DKx3BNQ,200,1, test, 7, 7, 24, 3, 1, 1, 3, 0.55, 0.35, right, 2, 0.35, 0.45, 0.55, 0.65, 0.4416928000282496, 0, 10.000000,88.000000,1.000000,6.000000,0.500000,1.000000
0DKx3BNQ,200,1, test, 7, 7, 25, 3, 2, 3, 2, 0.55, 0.45, left, 1, 0.35, 0.45, 0.55, 0.65, 0.34865009994246066, 1, 11.000000,89.000000,1.000000,6.000000,0.500000,1.000000
0DKx3BNQ,200,1, test, 8, 1, 1, 3, 1, 1, 3, 0.55, 0.35, right, 2, 0.35, 0.45, 0.55, 0.65, 0.7408680999651551, 1, 1.000000,90.000000,1.000000,6.000000,0.500000,1.000000
0DKx3BNQ,200,1, test, 8, 1, 2, 3, 4, 3, 4, 0.55, 0.65, left, 1, 0.35, 0.45, 0.55, 0.65, 0.31924439989961684, 1, 2.000000,91.000000,1.000000,6.000000,0.500000,1.000000
0DKx3BNQ,200,1, test, 8, 1, 3, 3, 1, 3, 1, 0.55, 0.35, left, 1, 0.35, 0.45, 0.55, 0.65, 0.4285446999128908, 0, 2.000000,91.000000,1.000000,6.000000,0.500000,1.000000
0DKx3BNQ,200,1, test, 8, 1, 4, 3, 4, 3, 4, 0.55, 0.65, left, 1, 0.35, 0.45, 0.55, 0.65, 0.3438343999441713, 1, 3.000000,92.000000,1.000000,6.000000,0.500000,1.000000
0DKx3BNQ,200,1, test, 8, 1, 5, 3, 1, 1, 3, 0.55, 0.35, right, 2, 0.35, 0.45, 0.55, 0.65, 0.2993537001311779, 1, 4.000000,93.000000,1.000000,6.000000,0.500000,1.000000
0DKx3BNQ,200,1, test, 8, 1, 6, 3, 1, 1, 3, 0.55, 0.35, right, 2, 0.35, 0.45, 0.55, 0.65, 0.3394494999665767, 0, 4.000000,93.000000,1.000000,6.000000,0.500000,1.000000
0DKx3BNQ,200,1, test, 8, 1, 7, 1, 4, 4, 1, 0.35, 0.65, right, 2, 0.35, 0.45, 0.55, 0.65, 0.3359466001857072, 0, 4.000000,93.000000,1.000000,6.000000,0.500000,1.000000
0DKx3BNQ,200,1, test, 8, 1, 8, 3, 4, 3, 4, 0.55, 0.65, left, 1, 0.35, 0.45, 0.55, 0.65, 0.32584009994752705, 1, 5.000000,94.000000,1.000000,6.000000,0.500000,1.000000
0DKx3BNQ,200,1, test, 8, 1, 9, 1, 4, 1, 4, 0.35, 0.65, left, 1, 0.35, 0.45, 0.55, 0.65, 0.7703753998503089, 0, 5.000000,94.000000,1.000000,6.000000,0.500000,1.000000
0DKx3BNQ,200,1, test, 8, 1, 10, 4, 1, 4, 1, 0.65, 0.35, left, 1, 0.35, 0.45, 0.55, 0.65, 0.920481099979952, 0, 5.000000,94.000000,1.000000,6.000000,0.500000,1.000000
0DKx3BNQ,200,1, test, 8, 1, 11, 1, 3, 1, 3, 0.35, 0.55, left, 1, 0.35, 0.45, 0.55, 0.65, 0.3925030999816954, 1, 6.000000,95.000000,1.000000,6.000000,0.500000,1.000000
0DKx3BNQ,200,1, test, 8, 1, 12, 1, 2, 2, 1, 0.35, 0.45, right, 2, 0.35, 0.45, 0.55, 0.65, 0.4772379999049008, 0, 6.000000,95.000000,1.000000,6.000000,0.500000,1.000000
0DKx3BNQ,200,1, test, 8, 1, 13, 3, 4, 3, 4, 0.55, 0.65, left, 1, 0.35, 0.45, 0.55, 0.65, 0.3282644001301378, 0, 6.000000,95.000000,1.000000,6.000000,0.500000,1.000000
0DKx3BNQ,200,1, test, 8, 1, 14, 1, 4, 1, 4, 0.35, 0.65, left, 1, 0.35, 0.45, 0.55, 0.65, 0.34024010016582906, 0, 6.000000,95.000000,1.000000,6.000000,0.500000,1.000000
0DKx3BNQ,200,1, test, 8, 1, 15, 1, 2, 1, 2, 0.35, 0.45, left, 1, 0.35, 0.45, 0.55, 0.65, 0.39551249984651804, 1, 7.000000,96.000000,1.000000,6.000000,0.500000,1.000000
0DKx3BNQ,200,1, test, 8, 1, 16, 1, 4, 1, 4, 0.35, 0.65, left, 1, 0.35, 0.45, 0.55, 0.65, 0.3603519999887794, 1, 8.000000,97.000000,1.000000,6.000000,0.500000,1.000000
0DKx3BNQ,200,1, test, 8, 1, 17, 1, 4, 1, 4, 0.35, 0.65, left, 1, 0.35, 0.45, 0.55, 0.65, 0.5613818999845535, 1, 9.000000,98.000000,1.000000,6.000000,0.500000,1.000000
0DKx3BNQ,200,1, test, 8, 1, 18, 3, 1, 1, 3, 0.55, 0.35, right, 2, 0.35, 0.45, 0.55, 0.65, 0.4527284998912364, 1, 10.000000,99.000000,1.000000,6.000000,0.500000,1.000000
0DKx3BNQ,200,1, test, 8, 1, 19, 3, 1, 3, 1, 0.55, 0.35, left, 1, 0.35, 0.45, 0.55, 0.65, 0.344416500069201, 0, 10.000000,99.000000,1.000000,6.000000,0.500000,1.000000
0DKx3BNQ,200,1, test, 8, 1, 20, 4, 2, 2, 4, 0.65, 0.45, right, 2, 0.35, 0.45, 0.55, 0.65, 0.6625687000341713, 1, 11.000000,100.000000,1.000000,6.000000,0.500000,1.000000
0DKx3BNQ,200,1, test, 8, 1, 21, 4, 2, 4, 2, 0.65, 0.45, left, 1, 0.35, 0.45, 0.55, 0.65, 0.400942400097847, 1, 12.000000,101.000000,1.000000,6.000000,0.500000,1.000000
0DKx3BNQ,200,1, test, 8, 1, 22, 3, 4, 3, 4, 0.55, 0.65, left, 1, 0.35, 0.45, 0.55, 0.65, 0.4425879002083093, 0, 12.000000,101.000000,1.000000,6.000000,0.500000,1.000000
0DKx3BNQ,200,1, test, 8, 1, 23, 3, 1, 3, 1, 0.55, 0.35, left, 1, 0.35, 0.45, 0.55, 0.65, 0.36872479994781315, 1, 13.000000,102.000000,1.000000,6.000000,0.500000,1.000000
0DKx3BNQ,200,1, test, 8, 1, 24, 1, 2, 2, 1, 0.35, 0.45, right, 2, 0.35, 0.45, 0.55, 0.65, 0.37043939996510744, 0, 13.000000,102.000000,1.000000,6.000000,0.500000,1.000000
0DKx3BNQ,200,1, test, 8, 1, 25, 1, 2, 1, 2, 0.35, 0.45, left, 1, 0.35, 0.45, 0.55, 0.65, 0.3604178000241518, 1, 14.000000,103.000000,1.000000,6.000000,0.500000,1.000000
