ShaharID, group, counterbalance, block_type, block, delay_condition, trial, chosen, unchosen, offer_left_image, offer_right_image, exp_value_chosen, exp_value_unchosen, choice_location, choice_key, exp_value1, exp_value2, exp_value3, exp_value4, RT, reward, coins_per_block, coins_per_task,ITI_duration,rt_deadline,choice_feedback_duration,outcome_duration
pNc4qFar,200,0, practice, 1, 1, 1, 3, 4, 4, 3, 0.55, 0.65, right, 2, 0.35, 0.45, 0.55, 0.65, 1.3679217000026256, 1, 1.000000,1.000000,1.000000,6.000000,0.500000,1.000000
pNc4qFar,200,0, practice, 1, 1, 2, 2, 3, 3, 2, 0.45, 0.55, right, 2, 0.35, 0.45, 0.55, 0.65, 2.015363199985586, 1, 2.000000,2.000000,1.000000,6.000000,0.500000,1.000000
pNc4qFar,200,0, practice, 1, 1, 3, 3, 1, 3, 1, 0.55, 0.35, left, 1, 0.35, 0.45, 0.55, 0.65, 1.5908067999989726, 1, 3.000000,3.000000,1.000000,6.000000,0.500000,1.000000
pNc4qFar,200,0, practice, 1, 1, 4, 2, 3, 3, 2, 0.45, 0.55, right, 2, 0.35, 0.45, 0.55, 0.65, 1.3544728999841027, 1, 4.000000,4.000000,1.000000,6.000000,0.500000,1.000000
pNc4qFar,200,0, practice, 1, 1, 5, 3, 4, 3, 4, 0.55, 0.65, left, 1, 0.35, 0.45, 0.55, 0.65, 1.7987419000128284, 0, 4.000000,4.000000,1.000000,6.000000,0.500000,1.000000
pNc4qFar,200,0, test, 1, 1, 1, 4, 3, 3, 4, 0.65, 0.55, right, 2, 0.35, 0.45, 0.55, 0.65, 1.6198193000163883, 0, 0.000000,4.000000,1.000000,6.000000,0.500000,1.000000
pNc4qFar,200,0, test, 1, 1, 2, 3, 2, 2, 3, 0.55, 0.45, right, 2, 0.35, 0.45, 0.55, 0.65, 1.647740899992641, 0, 0.000000,4.000000,1.000000,6.000000,0.500000,1.000000
pNc4qFar,200,0, test, 1, 1, 3, 2, 1, 2, 1, 0.45, 0.35, left, 1, 0.35, 0.45, 0.55, 0.65, 0.9656350999721326, 0, 0.000000,4.000000,1.000000,6.000000,0.500000,1.000000
pNc4qFar,200,0, test, 1, 1, 4, 2, 4, 4, 2, 0.45, 0.65, right, 2, 0.35, 0.45, 0.55, 0.65, 1.2560197999700904, 1, 1.000000,5.000000,1.000000,6.000000,0.500000,1.000000
pNc4qFar,200,0, test, 1, 1, 5, 2, 3, 2, 3, 0.45, 0.55, left, 1, 0.35, 0.45, 0.55, 0.65, 2.189690800034441, 1, 2.000000,6.000000,1.000000,6.000000,0.500000,1.000000
pNc4qFar,200,0, test, 1, 1, 6, 3, 2, 2, 3, 0.55, 0.45, right, 2, 0.35, 0.45, 0.55, 0.65, 0.8845041999593377, 1, 3.000000,7.000000,1.000000,6.000000,0.500000,1.000000
pNc4qFar,200,0, test, 1, 1, 7, 2, 3, 2, 3, 0.45, 0.55, left, 1, 0.35, 0.45, 0.55, 0.65, 2.0570876999991015, 1, 4.000000,8.000000,1.000000,6.000000,0.500000,1.000000
pNc4qFar,200,0, test, 1, 1, 8, 1, 4, 4, 1, 0.35, 0.65, right, 2, 0.35, 0.45, 0.55, 0.65, 2.351727099972777, 1, 5.000000,9.000000,1.000000,6.000000,0.500000,1.000000
pNc4qFar,200,0, test, 1, 1, 9, 4, 3, 3, 4, 0.65, 0.55, right, 2, 0.35, 0.45, 0.55, 0.65, 1.1352931000292301, 1, 6.000000,10.000000,1.000000,6.000000,0.500000,1.000000
pNc4qFar,200,0, test, 1, 1, 10, 2, 3, 3, 2, 0.45, 0.55, right, 2, 0.35, 0.45, 0.55, 0.65, 2.6862366999848746, 0, 6.000000,10.000000,1.000000,6.000000,0.500000,1.000000
pNc4qFar,200,0, test, 1, 1, 11, 2, 4, 2, 4, 0.45, 0.65, left, 1, 0.35, 0.45, 0.55, 0.65, 1.0502693000016734, 0, 6.000000,10.000000,1.000000,6.000000,0.500000,1.000000
pNc4qFar,200,0, test, 1, 1, 12, 2, 3, 2, 3, 0.45, 0.55, left, 1, 0.35, 0.45, 0.55, 0.65, 1.3213892999920063, 1, 7.000000,11.000000,1.000000,6.000000,0.500000,1.000000
pNc4qFar,200,0, test, 1, 1, 13, 4, 1, 4, 1, 0.65, 0.35, left, 1, 0.35, 0.45, 0.55, 0.65, 2.384752899990417, 0, 7.000000,11.000000,1.000000,6.000000,0.500000,1.000000
pNc4qFar,200,0, test, 1, 1, 14, 3, 1, 1, 3, 0.55, 0.35, right, 2, 0.35, 0.45, 0.55, 0.65, 1.7155940999509767, 0, 7.000000,11.000000,1.000000,6.000000,0.500000,1.000000
pNc4qFar,200,0, test, 1, 1, 15, 1, 4, 1, 4, 0.35, 0.65, left, 1, 0.35, 0.45, 0.55, 0.65, 2.0355322000104934, 0, 7.000000,11.000000,1.000000,6.000000,0.500000,1.000000
pNc4qFar,200,0, test, 1, 1, 16, 2, 3, 3, 2, 0.45, 0.55, right, 2, 0.35, 0.45, 0.55, 0.65, 2.2742711000028066, 0, 7.000000,11.000000,1.000000,6.000000,0.500000,1.000000
pNc4qFar,200,0, test, 1, 1, 17, 3, 1, 1, 3, 0.55, 0.35, right, 2, 0.35, 0.45, 0.55, 0.65, 0.7647948000230826, 0, 7.000000,11.000000,1.000000,6.000000,0.500000,1.000000
pNc4qFar,200,0, test, 1, 1, 18, 1, 2, 1, 2, 0.35, 0.45, left, 1, 0.35, 0.45, 0.55, 0.65, 0.7129827999742702, 0, 7.000000,11.000000,1.000000,6.000000,0.500000,1.000000
pNc4qFar,200,0, test, 1, 1, 19, 4, 2, 4, 2, 0.65, 0.45, left, 1, 0.35, 0.45, 0.55, 0.65, 1.6583298000041395, 1, 8.000000,12.000000,1.000000,6.000000,0.500000,1.000000
pNc4qFar,200,0, test, 1, 1, 20, 3, 4, 3, 4, 0.55, 0.65, left, 1, 0.35, 0.45, 0.55, 0.65, 0.9816296000499278, 0, 8.000000,12.000000,1.000000,6.000000,0.500000,1.000000
pNc4qFar,200,0, test, 1, 1, 21, 1, 2, 2, 1, 0.35, 0.45, right, 2, 0.35, 0.45, 0.55, 0.65, 2.298717600002419, 1, 9.000000,13.000000,1.000000,6.000000,0.500000,1.000000
pNc4qFar,200,0, test, 1, 1, 22, 4, 3, 3, 4, 0.65, 0.55, right, 2, 0.35, 0.45, 0.55, 0.65, 3.179691899975296, 0, 9.000000,13.000000,1.000000,6.000000,0.500000,1.000000
pNc4qFar,200,0, test, 1, 1, 23, 4, 2, 4, 2, 0.65, 0.45, left, 1, 0.35, 0.45, 0.55, 0.65, 1.7326036000158638, 1, 10.000000,14.000000,1.000000,6.000000,0.500000,1.000000
pNc4qFar,200,0, test, 1, 1, 24, 2, 1, 1, 2, 0.45, 0.35, right, 2, 0.35, 0.45, 0.55, 0.65, 2.2162553999805823, 1, 11.000000,15.000000,1.000000,6.000000,0.500000,1.000000
pNc4qFar,200,0, test, 1, 1, 25, 4, 2, 2, 4, 0.65, 0.45, right, 2, 0.35, 0.45, 0.55, 0.65, 1.3323808000423014, 1, 12.000000,16.000000,1.000000,6.000000,0.500000,1.000000
pNc4qFar,200,0, test, 2, 7, 1, 3, 4, 3, 4, 0.55, 0.65, left, 1, 0.35, 0.45, 0.55, 0.65, 1.6202531000017188, 1, 1.000000,17.000000,1.000000,6.000000,0.500000,1.000000
pNc4qFar,200,0, test, 2, 7, 2, 4, 2, 2, 4, 0.65, 0.45, right, 2, 0.35, 0.45, 0.55, 0.65, 1.6588885000091977, 0, 1.000000,17.000000,1.000000,6.000000,0.500000,1.000000
pNc4qFar,200,0, test, 2, 7, 3, 3, 1, 3, 1, 0.55, 0.35, left, 1, 0.35, 0.45, 0.55, 0.65, 2.08215009997366, 1, 2.000000,18.000000,1.000000,6.000000,0.500000,1.000000
pNc4qFar,200,0, test, 2, 7, 4, 1, 2, 2, 1, 0.35, 0.45, right, 2, 0.35, 0.45, 0.55, 0.65, 3.1194256999879144, 0, 2.000000,18.000000,1.000000,6.000000,0.500000,1.000000
pNc4qFar,200,0, test, 2, 7, 5, 4, 2, 4, 2, 0.65, 0.45, left, 1, 0.35, 0.45, 0.55, 0.65, 1.166842600039672, 0, 2.000000,18.000000,1.000000,6.000000,0.500000,1.000000
pNc4qFar,200,0, test, 2, 7, 6, 1, 2, 2, 1, 0.35, 0.45, right, 2, 0.35, 0.45, 0.55, 0.65, 1.5228555999929085, 1, 3.000000,19.000000,1.000000,6.000000,0.500000,1.000000
pNc4qFar,200,0, test, 2, 7, 7, 2, 3, 3, 2, 0.45, 0.55, right, 2, 0.35, 0.45, 0.55, 0.65, 1.098277600016445, 0, 3.000000,19.000000,1.000000,6.000000,0.500000,1.000000
pNc4qFar,200,0, test, 2, 7, 8, 2, 3, 2, 3, 0.45, 0.55, left, 1, 0.35, 0.45, 0.55, 0.65, 1.3698452999815345, 1, 4.000000,20.000000,1.000000,6.000000,0.500000,1.000000
pNc4qFar,200,0, test, 2, 7, 9, 1, 4, 1, 4, 0.35, 0.65, left, 1, 0.35, 0.45, 0.55, 0.65, 1.6191602000035346, 0, 4.000000,20.000000,1.000000,6.000000,0.500000,1.000000
pNc4qFar,200,0, test, 2, 7, 10, 3, 2, 3, 2, 0.55, 0.45, left, 1, 0.35, 0.45, 0.55, 0.65, 1.883765000035055, 1, 5.000000,21.000000,1.000000,6.000000,0.500000,1.000000
pNc4qFar,200,0, test, 2, 7, 11, 4, 3, 3, 4, 0.65, 0.55, right, 2, 0.35, 0.45, 0.55, 0.65, 2.6365992999635637, 1, 6.000000,22.000000,1.000000,6.000000,0.500000,1.000000
pNc4qFar,200,0, test, 2, 7, 12, 3, 1, 3, 1, 0.55, 0.35, left, 1, 0.35, 0.45, 0.55, 0.65, 0.8720050999545492, 1, 7.000000,23.000000,1.000000,6.000000,0.500000,1.000000
pNc4qFar,200,0, test, 2, 7, 13, 4, 3, 3, 4, 0.65, 0.55, right, 2, 0.35, 0.45, 0.55, 0.65, 0.49014479998731986, 1, 8.000000,24.000000,1.000000,6.000000,0.500000,1.000000
pNc4qFar,200,0, test, 2, 7, 14, 1, 3, 3, 1, 0.35, 0.55, right, 2, 0.35, 0.45, 0.55, 0.65, 3.1234543999889866, 0, 8.000000,24.000000,1.000000,6.000000,0.500000,1.000000
pNc4qFar,200,0, test, 2, 7, 15, 1, 3, 3, 1, 0.35, 0.55, right, 2, 0.35, 0.45, 0.55, 0.65, 1.9918554000323638, 1, 9.000000,25.000000,1.000000,6.000000,0.500000,1.000000
pNc4qFar,200,0, test, 2, 7, 16, 4, 2, 2, 4, 0.65, 0.45, right, 2, 0.35, 0.45, 0.55, 0.65, 3.7890274999663234, 0, 9.000000,25.000000,1.000000,6.000000,0.500000,1.000000
pNc4qFar,200,0, test, 2, 7, 17, 1, 3, 3, 1, 0.35, 0.55, right, 2, 0.35, 0.45, 0.55, 0.65, 1.5177558999857865, 0, 9.000000,25.000000,1.000000,6.000000,0.500000,1.000000
pNc4qFar,200,0, test, 2, 7, 18, 4, 3, 4, 3, 0.65, 0.55, left, 1, 0.35, 0.45, 0.55, 0.65, 1.7070430999738164, 1, 10.000000,26.000000,1.000000,6.000000,0.500000,1.000000
pNc4qFar,200,0, test, 2, 7, 19, 2, 4, 2, 4, 0.45, 0.65, left, 1, 0.35, 0.45, 0.55, 0.65, 0.950748500006739, 0, 10.000000,26.000000,1.000000,6.000000,0.500000,1.000000
pNc4qFar,200,0, test, 2, 7, 20, 2, 1, 2, 1, 0.45, 0.35, left, 1, 0.35, 0.45, 0.55, 0.65, 0.6807715000468306, 0, 10.000000,26.000000,1.000000,6.000000,0.500000,1.000000
pNc4qFar,200,0, test, 2, 7, 21, 2, 1, 1, 2, 0.45, 0.35, right, 2, 0.35, 0.45, 0.55, 0.65, 1.2152995999786071, 0, 10.000000,26.000000,1.000000,6.000000,0.500000,1.000000
pNc4qFar,200,0, test, 2, 7, 22, 4, 1, 1, 4, 0.65, 0.35, right, 2, 0.35, 0.45, 0.55, 0.65, 2.0914610999752767, 1, 11.000000,27.000000,1.000000,6.000000,0.500000,1.000000
pNc4qFar,200,0, test, 2, 7, 23, 2, 3, 2, 3, 0.45, 0.55, left, 1, 0.35, 0.45, 0.55, 0.65, 3.2362204999662936, 1, 12.000000,28.000000,1.000000,6.000000,0.500000,1.000000
pNc4qFar,200,0, test, 2, 7, 24, 3, 1, 1, 3, 0.55, 0.35, right, 2, 0.35, 0.45, 0.55, 0.65, 1.1319349000114016, 1, 13.000000,29.000000,1.000000,6.000000,0.500000,1.000000
pNc4qFar,200,0, test, 2, 7, 25, 1, 2, 2, 1, 0.35, 0.45, right, 2, 0.35, 0.45, 0.55, 0.65, 1.5831043000216596, 0, 13.000000,29.000000,1.000000,6.000000,0.500000,1.000000
pNc4qFar,200,0, test, 3, 1, 1, 1, 2, 2, 1, 0.35, 0.45, right, 2, 0.35, 0.45, 0.55, 0.65, 1.5624108000192791, 0, 0.000000,29.000000,1.000000,6.000000,0.500000,1.000000
pNc4qFar,200,0, test, 3, 1, 2, 1, 4, 1, 4, 0.35, 0.65, left, 1, 0.35, 0.45, 0.55, 0.65, 2.728231799963396, 0, 0.000000,29.000000,1.000000,6.000000,0.500000,1.000000
pNc4qFar,200,0, test, 3, 1, 3, 3, 2, 2, 3, 0.55, 0.45, right, 2, 0.35, 0.45, 0.55, 0.65, 0.8274262999766506, 0, 0.000000,29.000000,1.000000,6.000000,0.500000,1.000000
pNc4qFar,200,0, test, 3, 1, 4, 4, 1, 4, 1, 0.65, 0.35, left, 1, 0.35, 0.45, 0.55, 0.65, 1.0921364999958314, 0, 0.000000,29.000000,1.000000,6.000000,0.500000,1.000000
pNc4qFar,200,0, test, 3, 1, 5, 1, 2, 1, 2, 0.35, 0.45, left, 1, 0.35, 0.45, 0.55, 0.65, 0.4407589000184089, 0, 0.000000,29.000000,1.000000,6.000000,0.500000,1.000000
pNc4qFar,200,0, test, 3, 1, 6, 3, 2, 2, 3, 0.55, 0.45, right, 2, 0.35, 0.45, 0.55, 0.65, 1.9439844000153244, 1, 1.000000,30.000000,1.000000,6.000000,0.500000,1.000000
pNc4qFar,200,0, test, 3, 1, 7, 4, 2, 2, 4, 0.65, 0.45, right, 2, 0.35, 0.45, 0.55, 0.65, 1.6907360999612138, 0, 1.000000,30.000000,1.000000,6.000000,0.500000,1.000000
pNc4qFar,200,0, test, 3, 1, 8, 1, 3, 3, 1, 0.35, 0.55, right, 2, 0.35, 0.45, 0.55, 0.65, 2.0201437000068836, 0, 1.000000,30.000000,1.000000,6.000000,0.500000,1.000000
pNc4qFar,200,0, test, 3, 1, 9, 2, 3, 3, 2, 0.45, 0.55, right, 2, 0.35, 0.45, 0.55, 0.65, 1.537324599979911, 0, 1.000000,30.000000,1.000000,6.000000,0.500000,1.000000
pNc4qFar,200,0, test, 3, 1, 10, 4, 2, 4, 2, 0.65, 0.45, left, 1, 0.35, 0.45, 0.55, 0.65, 2.875432799977716, 1, 2.000000,31.000000,1.000000,6.000000,0.500000,1.000000
pNc4qFar,200,0, test, 3, 1, 11, 1, 4, 1, 4, 0.35, 0.65, left, 1, 0.35, 0.45, 0.55, 0.65, 3.029568800004199, 0, 2.000000,31.000000,1.000000,6.000000,0.500000,1.000000
pNc4qFar,200,0, test, 3, 1, 12, 1, 4, 4, 1, 0.35, 0.65, right, 2, 0.35, 0.45, 0.55, 0.65, 2.2850265000015497, 0, 2.000000,31.000000,1.000000,6.000000,0.500000,1.000000
pNc4qFar,200,0, test, 3, 1, 13, 2, 3, 3, 2, 0.45, 0.55, right, 2, 0.35, 0.45, 0.55, 0.65, 1.2625805999850854, 1, 3.000000,32.000000,1.000000,6.000000,0.500000,1.000000
pNc4qFar,200,0, test, 3, 1, 14, 1, 2, 2, 1, 0.35, 0.45, right, 2, 0.35, 0.45, 0.55, 0.65, 2.168659500021022, 1, 4.000000,33.000000,1.000000,6.000000,0.500000,1.000000
pNc4qFar,200,0, test, 3, 1, 15, 3, 1, 3, 1, 0.55, 0.35, left, 1, 0.35, 0.45, 0.55, 0.65, 1.811832300038077, 1, 5.000000,34.000000,1.000000,6.000000,0.500000,1.000000
pNc4qFar,200,0, test, 3, 1, 16, 4, 3, 4, 3, 0.65, 0.55, left, 1, 0.35, 0.45, 0.55, 0.65, 1.252293900004588, 0, 5.000000,34.000000,1.000000,6.000000,0.500000,1.000000
pNc4qFar,200,0, test, 3, 1, 17, 3, 1, 1, 3, 0.55, 0.35, right, 2, 0.35, 0.45, 0.55, 0.65, 1.6748944999999367, 0, 5.000000,34.000000,1.000000,6.000000,0.500000,1.000000
pNc4qFar,200,0, test, 3, 1, 18, 2, 4, 4, 2, 0.45, 0.65, right, 2, 0.35, 0.45, 0.55, 0.65, 3.1035692000295967, 1, 6.000000,35.000000,1.000000,6.000000,0.500000,1.000000
pNc4qFar,200,0, test, 3, 1, 19, 3, 2, 2, 3, 0.55, 0.45, right, 2, 0.35, 0.45, 0.55, 0.65, 1.417736799980048, 0, 6.000000,35.000000,1.000000,6.000000,0.500000,1.000000
pNc4qFar,200,0, test, 3, 1, 20, 1, 2, 2, 1, 0.35, 0.45, right, 2, 0.35, 0.45, 0.55, 0.65, 1.560062900010962, 0, 6.000000,35.000000,1.000000,6.000000,0.500000,1.000000
pNc4qFar,200,0, test, 3, 1, 21, 1, 4, 1, 4, 0.35, 0.65, left, 1, 0.35, 0.45, 0.55, 0.65, 1.5073921000002883, 0, 6.000000,35.000000,1.000000,6.000000,0.500000,1.000000
pNc4qFar,200,0, test, 3, 1, 22, 1, 2, 1, 2, 0.35, 0.45, left, 1, 0.35, 0.45, 0.55, 0.65, 1.392011200019624, 0, 6.000000,35.000000,1.000000,6.000000,0.500000,1.000000
pNc4qFar,200,0, test, 3, 1, 23, 4, 3, 3, 4, 0.65, 0.55, right, 2, 0.35, 0.45, 0.55, 0.65, 1.4624021000345238, 0, 6.000000,35.000000,1.000000,6.000000,0.500000,1.000000
pNc4qFar,200,0, test, 3, 1, 24, 4, 1, 1, 4, 0.65, 0.35, right, 2, 0.35, 0.45, 0.55, 0.65, 2.763452999992296, 0, 6.000000,35.000000,1.000000,6.000000,0.500000,1.000000
pNc4qFar,200,0, test, 3, 1, 25, 3, 1, 1, 3, 0.55, 0.35, right, 2, 0.35, 0.45, 0.55, 0.65, 2.6973807000322267, 1, 7.000000,36.000000,1.000000,6.000000,0.500000,1.000000
pNc4qFar,200,0, test, 4, 7, 1, 3, 2, 2, 3, 0.55, 0.45, right, 2, 0.35, 0.45, 0.55, 0.65, 1.0296042000409216, 1, 1.000000,37.000000,1.000000,6.000000,0.500000,1.000000
pNc4qFar,200,0, test, 4, 7, 2, 1, 4, 4, 1, 0.35, 0.65, right, 2, 0.35, 0.45, 0.55, 0.65, 1.4831324000260793, 0, 1.000000,37.000000,1.000000,6.000000,0.500000,1.000000
pNc4qFar,200,0, test, 4, 7, 3, 4, 2, 2, 4, 0.65, 0.45, right, 2, 0.35, 0.45, 0.55, 0.65, 1.0124947999720462, 1, 2.000000,38.000000,1.000000,6.000000,0.500000,1.000000
pNc4qFar,200,0, test, 4, 7, 4, 2, 4, 4, 2, 0.45, 0.65, right, 2, 0.35, 0.45, 0.55, 0.65, 0.8816436000051908, 0, 2.000000,38.000000,1.000000,6.000000,0.500000,1.000000
pNc4qFar,200,0, test, 4, 7, 5, 2, 4, 2, 4, 0.45, 0.65, left, 1, 0.35, 0.45, 0.55, 0.65, 1.2856654000352137, 0, 2.000000,38.000000,1.000000,6.000000,0.500000,1.000000
pNc4qFar,200,0, test, 4, 7, 6, 3, 2, 3, 2, 0.55, 0.45, left, 1, 0.35, 0.45, 0.55, 0.65, 2.65149920003023, 0, 2.000000,38.000000,1.000000,6.000000,0.500000,1.000000
pNc4qFar,200,0, test, 4, 7, 7, 2, 3, 3, 2, 0.45, 0.55, right, 2, 0.35, 0.45, 0.55, 0.65, 3.3665474000154063, 0, 2.000000,38.000000,1.000000,6.000000,0.500000,1.000000
pNc4qFar,200,0, test, 4, 7, 8, 1, 4, 4, 1, 0.35, 0.65, right, 2, 0.35, 0.45, 0.55, 0.65, 2.2195519999950193, 1, 3.000000,39.000000,1.000000,6.000000,0.500000,1.000000
pNc4qFar,200,0, test, 4, 7, 9, 4, 1, 1, 4, 0.65, 0.35, right, 2, 0.35, 0.45, 0.55, 0.65, 2.4556127000250854, 0, 3.000000,39.000000,1.000000,6.000000,0.500000,1.000000
pNc4qFar,200,0, test, 4, 7, 10, 4, 2, 2, 4, 0.65, 0.45, right, 2, 0.35, 0.45, 0.55, 0.65, 2.2873334000469185, 1, 4.000000,40.000000,1.000000,6.000000,0.500000,1.000000
pNc4qFar,200,0, test, 4, 7, 11, 3, 2, 3, 2, 0.55, 0.45, left, 1, 0.35, 0.45, 0.55, 0.65, 3.4883257999899797, 1, 5.000000,41.000000,1.000000,6.000000,0.500000,1.000000
pNc4qFar,200,0, test, 4, 7, 12, 3, 2, 3, 2, 0.55, 0.45, left, 1, 0.35, 0.45, 0.55, 0.65, 1.3135343000176363, 0, 5.000000,41.000000,1.000000,6.000000,0.500000,1.000000
pNc4qFar,200,0, test, 4, 7, 13, 3, 4, 4, 3, 0.55, 0.65, right, 2, 0.35, 0.45, 0.55, 0.65, 3.252518599969335, 1, 6.000000,42.000000,1.000000,6.000000,0.500000,1.000000
pNc4qFar,200,0, test, 4, 7, 14, 4, 3, 3, 4, 0.65, 0.55, right, 2, 0.35, 0.45, 0.55, 0.65, 2.971447199990507, 0, 6.000000,42.000000,1.000000,6.000000,0.500000,1.000000
pNc4qFar,200,0, test, 4, 7, 15, 3, 1, 1, 3, 0.55, 0.35, right, 2, 0.35, 0.45, 0.55, 0.65, 0.41024450003169477, 1, 7.000000,43.000000,1.000000,6.000000,0.500000,1.000000
pNc4qFar,200,0, test, 4, 7, 16, 4, 2, 2, 4, 0.65, 0.45, right, 2, 0.35, 0.45, 0.55, 0.65, 2.0593167999759316, 0, 7.000000,43.000000,1.000000,6.000000,0.500000,1.000000
pNc4qFar,200,0, test, 4, 7, 17, 3, 4, 3, 4, 0.55, 0.65, left, 1, 0.35, 0.45, 0.55, 0.65, 1.4089047000161372, 0, 7.000000,43.000000,1.000000,6.000000,0.500000,1.000000
pNc4qFar,200,0, test, 4, 7, 18, 2, 4, 4, 2, 0.45, 0.65, right, 2, 0.35, 0.45, 0.55, 0.65, 1.5773237000103109, 1, 8.000000,44.000000,1.000000,6.000000,0.500000,1.000000
pNc4qFar,200,0, test, 4, 7, 19, 4, 3, 4, 3, 0.65, 0.55, left, 1, 0.35, 0.45, 0.55, 0.65, 3.0511050999630243, 0, 8.000000,44.000000,1.000000,6.000000,0.500000,1.000000
pNc4qFar,200,0, test, 4, 7, 20, 1, 2, 1, 2, 0.35, 0.45, left, 1, 0.35, 0.45, 0.55, 0.65, 0.7843603999936022, 0, 8.000000,44.000000,1.000000,6.000000,0.500000,1.000000
pNc4qFar,200,0, test, 4, 7, 21, 2, 1, 1, 2, 0.45, 0.35, right, 2, 0.35, 0.45, 0.55, 0.65, 1.8646034999983385, 1, 9.000000,45.000000,1.000000,6.000000,0.500000,1.000000
pNc4qFar,200,0, test, 4, 7, 22, 1, 4, 4, 1, 0.35, 0.65, right, 2, 0.35, 0.45, 0.55, 0.65, 2.1261539999977686, 1, 10.000000,46.000000,1.000000,6.000000,0.500000,1.000000
pNc4qFar,200,0, test, 4, 7, 23, 2, 4, 4, 2, 0.45, 0.65, right, 2, 0.35, 0.45, 0.55, 0.65, 2.0338118999497965, 0, 10.000000,46.000000,1.000000,6.000000,0.500000,1.000000
pNc4qFar,200,0, test, 4, 7, 24, 4, 3, 4, 3, 0.65, 0.55, left, 1, 0.35, 0.45, 0.55, 0.65, 1.5693201000103727, 0, 10.000000,46.000000,1.000000,6.000000,0.500000,1.000000
pNc4qFar,200,0, test, 4, 7, 25, 3, 2, 2, 3, 0.55, 0.45, right, 2, 0.35, 0.45, 0.55, 0.65, 0.4233387999702245, 0, 10.000000,46.000000,1.000000,6.000000,0.500000,1.000000
pNc4qFar,200,0, test, 5, 1, 1, 3, 2, 2, 3, 0.55, 0.45, right, 2, 0.35, 0.45, 0.55, 0.65, 1.6496830999967642, 1, 1.000000,47.000000,1.000000,6.000000,0.500000,1.000000
pNc4qFar,200,0, test, 5, 1, 2, 4, 2, 4, 2, 0.65, 0.45, left, 1, 0.35, 0.45, 0.55, 0.65, 1.664012199966237, 0, 1.000000,47.000000,1.000000,6.000000,0.500000,1.000000
pNc4qFar,200,0, test, 5, 1, 3, 4, 3, 3, 4, 0.65, 0.55, right, 2, 0.35, 0.45, 0.55, 0.65, 1.6304052000050433, 1, 2.000000,48.000000,1.000000,6.000000,0.500000,1.000000
pNc4qFar,200,0, test, 5, 1, 4, 3, 4, 4, 3, 0.55, 0.65, right, 2, 0.35, 0.45, 0.55, 0.65, 0.5377673000330105, 1, 3.000000,49.000000,1.000000,6.000000,0.500000,1.000000
pNc4qFar,200,0, test, 5, 1, 5, 4, 3, 4, 3, 0.65, 0.55, left, 1, 0.35, 0.45, 0.55, 0.65, 1.625377300020773, 1, 4.000000,50.000000,1.000000,6.000000,0.500000,1.000000
pNc4qFar,200,0, test, 5, 1, 6, 1, 4, 1, 4, 0.35, 0.65, left, 1, 0.35, 0.45, 0.55, 0.65, 1.2128530999762006, 0, 4.000000,50.000000,1.000000,6.000000,0.500000,1.000000
pNc4qFar,200,0, test, 5, 1, 7, 3, 1, 3, 1, 0.55, 0.35, left, 1, 0.35, 0.45, 0.55, 0.65, 2.4823440000182018, 1, 5.000000,51.000000,1.000000,6.000000,0.500000,1.000000
pNc4qFar,200,0, test, 5, 1, 8, 1, 2, 1, 2, 0.35, 0.45, left, 1, 0.35, 0.45, 0.55, 0.65, 2.799729699967429, 0, 5.000000,51.000000,1.000000,6.000000,0.500000,1.000000
pNc4qFar,200,0, test, 5, 1, 9, 2, 4, 4, 2, 0.45, 0.65, right, 2, 0.35, 0.45, 0.55, 0.65, 1.9160164999775589, 0, 5.000000,51.000000,1.000000,6.000000,0.500000,1.000000
pNc4qFar,200,0, test, 5, 1, 10, 1, 2, 2, 1, 0.35, 0.45, right, 2, 0.35, 0.45, 0.55, 0.65, 2.56313050002791, 1, 6.000000,52.000000,1.000000,6.000000,0.500000,1.000000
pNc4qFar,200,0, test, 5, 1, 11, 2, 1, 2, 1, 0.45, 0.35, left, 1, 0.35, 0.45, 0.55, 0.65, 1.5416062999865972, 0, 6.000000,52.000000,1.000000,6.000000,0.500000,1.000000
pNc4qFar,200,0, test, 5, 1, 12, 3, 1, 3, 1, 0.55, 0.35, left, 1, 0.35, 0.45, 0.55, 0.65, 1.1039590000291355, 1, 7.000000,53.000000,1.000000,6.000000,0.500000,1.000000
pNc4qFar,200,0, test, 5, 1, 13, 2, 1, 1, 2, 0.45, 0.35, right, 2, 0.35, 0.45, 0.55, 0.65, 2.629650800023228, 1, 8.000000,54.000000,1.000000,6.000000,0.500000,1.000000
pNc4qFar,200,0, test, 5, 1, 14, 1, 2, 2, 1, 0.35, 0.45, right, 2, 0.35, 0.45, 0.55, 0.65, 0.3923725000349805, 0, 8.000000,54.000000,1.000000,6.000000,0.500000,1.000000
pNc4qFar,200,0, test, 5, 1, 15, 4, 3, 3, 4, 0.65, 0.55, right, 2, 0.35, 0.45, 0.55, 0.65, 1.8780052000074647, 0, 8.000000,54.000000,1.000000,6.000000,0.500000,1.000000
pNc4qFar,200,0, test, 5, 1, 16, 2, 1, 1, 2, 0.45, 0.35, right, 2, 0.35, 0.45, 0.55, 0.65, 1.8281447000335902, 0, 8.000000,54.000000,1.000000,6.000000,0.500000,1.000000
pNc4qFar,200,0, test, 5, 1, 17, 2, 4, 2, 4, 0.45, 0.65, left, 1, 0.35, 0.45, 0.55, 0.65, 1.5194414000143297, 0, 8.000000,54.000000,1.000000,6.000000,0.500000,1.000000
pNc4qFar,200,0, test, 5, 1, 18, 4, 3, 3, 4, 0.65, 0.55, right, 2, 0.35, 0.45, 0.55, 0.65, 1.5318780000088736, 1, 9.000000,55.000000,1.000000,6.000000,0.500000,1.000000
pNc4qFar,200,0, test, 5, 1, 19, 1, 2, 2, 1, 0.35, 0.45, right, 2, 0.35, 0.45, 0.55, 0.65, 2.571698200015817, 1, 10.000000,56.000000,1.000000,6.000000,0.500000,1.000000
pNc4qFar,200,0, test, 5, 1, 20, 3, 4, 4, 3, 0.55, 0.65, right, 2, 0.35, 0.45, 0.55, 0.65, 1.7493071999633685, 0, 10.000000,56.000000,1.000000,6.000000,0.500000,1.000000
pNc4qFar,200,0, test, 5, 1, 21, 4, 1, 1, 4, 0.65, 0.35, right, 2, 0.35, 0.45, 0.55, 0.65, 1.0889255999936722, 1, 11.000000,57.000000,1.000000,6.000000,0.500000,1.000000
pNc4qFar,200,0, test, 5, 1, 22, 1, 2, 1, 2, 0.35, 0.45, left, 1, 0.35, 0.45, 0.55, 0.65, 0.8535799999954179, 1, 12.000000,58.000000,1.000000,6.000000,0.500000,1.000000
pNc4qFar,200,0, test, 5, 1, 23, 4, 1, 1, 4, 0.65, 0.35, right, 2, 0.35, 0.45, 0.55, 0.65, 0.8923415000317618, 1, 13.000000,59.000000,1.000000,6.000000,0.500000,1.000000
pNc4qFar,200,0, test, 5, 1, 24, 1, 2, 2, 1, 0.35, 0.45, right, 2, 0.35, 0.45, 0.55, 0.65, 1.0499834999791346, 1, 14.000000,60.000000,1.000000,6.000000,0.500000,1.000000
pNc4qFar,200,0, test, 5, 1, 25, 2, 3, 2, 3, 0.45, 0.55, left, 1, 0.35, 0.45, 0.55, 0.65, 1.5637955999700353, 0, 14.000000,60.000000,1.000000,6.000000,0.500000,1.000000
pNc4qFar,200,0, test, 6, 7, 1, 2, 1, 1, 2, 0.45, 0.35, right, 2, 0.35, 0.45, 0.55, 0.65, 0.5833100999589078, 1, 1.000000,61.000000,1.000000,6.000000,0.500000,1.000000
pNc4qFar,200,0, test, 6, 7, 2, 1, 3, 3, 1, 0.35, 0.55, right, 2, 0.35, 0.45, 0.55, 0.65, 1.237491499981843, 0, 1.000000,61.000000,1.000000,6.000000,0.500000,1.000000
pNc4qFar,200,0, test, 6, 7, 3, 3, 1, 3, 1, 0.55, 0.35, left, 1, 0.35, 0.45, 0.55, 0.65, 0.41629209998063743, 1, 2.000000,62.000000,1.000000,6.000000,0.500000,1.000000
pNc4qFar,200,0, test, 6, 7, 4, 2, 4, 2, 4, 0.45, 0.65, left, 1, 0.35, 0.45, 0.55, 0.65, 3.2564018000266515, 1, 3.000000,63.000000,1.000000,6.000000,0.500000,1.000000
pNc4qFar,200,0, test, 6, 7, 5, 1, 2, 1, 2, 0.35, 0.45, left, 1, 0.35, 0.45, 0.55, 0.65, 1.3737128000357188, 0, 3.000000,63.000000,1.000000,6.000000,0.500000,1.000000
pNc4qFar,200,0, test, 6, 7, 6, 4, 1, 4, 1, 0.65, 0.35, left, 1, 0.35, 0.45, 0.55, 0.65, 3.3790730999899097, 0, 3.000000,63.000000,1.000000,6.000000,0.500000,1.000000
pNc4qFar,200,0, test, 6, 7, 7, 1, 2, 1, 2, 0.35, 0.45, left, 1, 0.35, 0.45, 0.55, 0.65, 2.305690400011372, 0, 3.000000,63.000000,1.000000,6.000000,0.500000,1.000000
pNc4qFar,200,0, test, 6, 7, 8, 4, 3, 3, 4, 0.65, 0.55, right, 2, 0.35, 0.45, 0.55, 0.65, 2.6870607000309974, 1, 4.000000,64.000000,1.000000,6.000000,0.500000,1.000000
pNc4qFar,200,0, test, 6, 7, 9, 4, 1, 4, 1, 0.65, 0.35, left, 1, 0.35, 0.45, 0.55, 0.65, 2.3440624000504613, 1, 5.000000,65.000000,1.000000,6.000000,0.500000,1.000000
pNc4qFar,200,0, test, 6, 7, 10, 1, 4, 4, 1, 0.35, 0.65, right, 2, 0.35, 0.45, 0.55, 0.65, 2.000064600026235, 1, 6.000000,66.000000,1.000000,6.000000,0.500000,1.000000
pNc4qFar,200,0, test, 6, 7, 11, 3, 1, 1, 3, 0.55, 0.35, right, 2, 0.35, 0.45, 0.55, 0.65, 2.8552921999944374, 0, 6.000000,66.000000,1.000000,6.000000,0.500000,1.000000
pNc4qFar,200,0, test, 6, 7, 12, 3, 2, 3, 2, 0.55, 0.45, left, 1, 0.35, 0.45, 0.55, 0.65, 3.654020199959632, 1, 7.000000,67.000000,1.000000,6.000000,0.500000,1.000000
pNc4qFar,200,0, test, 6, 7, 13, 1, 3, 3, 1, 0.35, 0.55, right, 2, 0.35, 0.45, 0.55, 0.65, 2.6205869000405073, 0, 7.000000,67.000000,1.000000,6.000000,0.500000,1.000000
pNc4qFar,200,0, test, 6, 7, 14, 2, 4, 4, 2, 0.45, 0.65, right, 2, 0.35, 0.45, 0.55, 0.65, 1.5456444000010379, 1, 8.000000,68.000000,1.000000,6.000000,0.500000,1.000000
pNc4qFar,200,0, test, 6, 7, 15, 4, 2, 2, 4, 0.65, 0.45, right, 2, 0.35, 0.45, 0.55, 0.65, 1.119758999964688, 1, 9.000000,69.000000,1.000000,6.000000,0.500000,1.000000
pNc4qFar,200,0, test, 6, 7, 16, 3, 4, 3, 4, 0.55, 0.65, left, 1, 0.35, 0.45, 0.55, 0.65, 1.5866975000244565, 1, 10.000000,70.000000,1.000000,6.000000,0.500000,1.000000
pNc4qFar,200,0, test, 6, 7, 17, 4, 3, 4, 3, 0.65, 0.55, left, 1, 0.35, 0.45, 0.55, 0.65, 1.436062699998729, 0, 10.000000,70.000000,1.000000,6.000000,0.500000,1.000000
pNc4qFar,200,0, test, 6, 7, 18, 2, 4, 2, 4, 0.45, 0.65, left, 1, 0.35, 0.45, 0.55, 0.65, 2.6081475999671966, 1, 11.000000,71.000000,1.000000,6.000000,0.500000,1.000000
pNc4qFar,200,0, test, 6, 7, 19, 3, 2, 3, 2, 0.55, 0.45, left, 1, 0.35, 0.45, 0.55, 0.65, 2.796344799979124, 0, 11.000000,71.000000,1.000000,6.000000,0.500000,1.000000
pNc4qFar,200,0, test, 6, 7, 20, 2, 4, 2, 4, 0.45, 0.65, left, 1, 0.35, 0.45, 0.55, 0.65, 1.5303386999876238, 1, 12.000000,72.000000,1.000000,6.000000,0.500000,1.000000
pNc4qFar,200,0, test, 6, 7, 21, 2, 1, 2, 1, 0.45, 0.35, left, 1, 0.35, 0.45, 0.55, 0.65, 1.8536124000092968, 0, 12.000000,72.000000,1.000000,6.000000,0.500000,1.000000
pNc4qFar,200,0, test, 6, 7, 22, 1, 2, 2, 1, 0.35, 0.45, right, 2, 0.35, 0.45, 0.55, 0.65, 0.5276106999954209, 0, 12.000000,72.000000,1.000000,6.000000,0.500000,1.000000
pNc4qFar,200,0, test, 6, 7, 23, 3, 1, 1, 3, 0.55, 0.35, right, 2, 0.35, 0.45, 0.55, 0.65, 3.242466800031252, 0, 12.000000,72.000000,1.000000,6.000000,0.500000,1.000000
pNc4qFar,200,0, test, 6, 7, 24, 3, 2, 2, 3, 0.55, 0.45, right, 2, 0.35, 0.45, 0.55, 0.65, 1.9615473999874666, 1, 13.000000,73.000000,1.000000,6.000000,0.500000,1.000000
pNc4qFar,200,0, test, 6, 7, 25, 1, 4, 1, 4, 0.35, 0.65, left, 1, 0.35, 0.45, 0.55, 0.65, 1.885528999962844, 1, 14.000000,74.000000,1.000000,6.000000,0.500000,1.000000
pNc4qFar,200,0, test, 7, 1, 1, 3, 2, 2, 3, 0.55, 0.45, right, 2, 0.35, 0.45, 0.55, 0.65, 0.9396967000211589, 1, 1.000000,75.000000,1.000000,6.000000,0.500000,1.000000
pNc4qFar,200,0, test, 7, 1, 2, 4, 3, 3, 4, 0.65, 0.55, right, 2, 0.35, 0.45, 0.55, 0.65, 1.7043073000386357, 0, 1.000000,75.000000,1.000000,6.000000,0.500000,1.000000
pNc4qFar,200,0, test, 7, 1, 3, 4, 1, 1, 4, 0.65, 0.35, right, 2, 0.35, 0.45, 0.55, 0.65, 1.1212634000112303, 1, 2.000000,76.000000,1.000000,6.000000,0.500000,1.000000
pNc4qFar,200,0, test, 7, 1, 4, 3, 4, 4, 3, 0.55, 0.65, right, 2, 0.35, 0.45, 0.55, 0.65, 0.6371300999890082, 1, 3.000000,77.000000,1.000000,6.000000,0.500000,1.000000
pNc4qFar,200,0, test, 7, 1, 5, 2, 3, 2, 3, 0.45, 0.55, left, 1, 0.35, 0.45, 0.55, 0.65, 2.6190866999677382, 1, 4.000000,78.000000,1.000000,6.000000,0.500000,1.000000
pNc4qFar,200,0, test, 7, 1, 6, 4, 2, 2, 4, 0.65, 0.45, right, 2, 0.35, 0.45, 0.55, 0.65, 1.1947351999697275, 0, 4.000000,78.000000,1.000000,6.000000,0.500000,1.000000
pNc4qFar,200,0, test, 7, 1, 7, 1, 3, 1, 3, 0.35, 0.55, left, 1, 0.35, 0.45, 0.55, 0.65, 2.0374866999918595, 0, 4.000000,78.000000,1.000000,6.000000,0.500000,1.000000
pNc4qFar,200,0, test, 7, 1, 8, 2, 1, 2, 1, 0.45, 0.35, left, 1, 0.35, 0.45, 0.55, 0.65, 1.3608388000284322, 1, 5.000000,79.000000,1.000000,6.000000,0.500000,1.000000
pNc4qFar,200,0, test, 7, 1, 9, 4, 1, 1, 4, 0.65, 0.35, right, 2, 0.35, 0.45, 0.55, 0.65, 1.7068380999844521, 1, 6.000000,80.000000,1.000000,6.000000,0.500000,1.000000
pNc4qFar,200,0, test, 7, 1, 10, 1, 4, 1, 4, 0.35, 0.65, left, 1, 0.35, 0.45, 0.55, 0.65, 0.8669908000156283, 0, 6.000000,80.000000,1.000000,6.000000,0.500000,1.000000
pNc4qFar,200,0, test, 7, 1, 11, 1, 2, 2, 1, 0.35, 0.45, right, 2, 0.35, 0.45, 0.55, 0.65, 0.8905700999894179, 1, 7.000000,81.000000,1.000000,6.000000,0.500000,1.000000
pNc4qFar,200,0, test, 7, 1, 12, 2, 1, 1, 2, 0.45, 0.35, right, 2, 0.35, 0.45, 0.55, 0.65, 0.47472220001509413, 1, 8.000000,82.000000,1.000000,6.000000,0.500000,1.000000
pNc4qFar,200,0, test, 7, 1, 13, 2, 4, 2, 4, 0.45, 0.65, left, 1, 0.35, 0.45, 0.55, 0.65, 1.1045249000308104, 0, 8.000000,82.000000,1.000000,6.000000,0.500000,1.000000
pNc4qFar,200,0, test, 7, 1, 14, 2, 3, 3, 2, 0.45, 0.55, right, 2, 0.35, 0.45, 0.55, 0.65, 1.3399305999628268, 1, 9.000000,83.000000,1.000000,6.000000,0.500000,1.000000
pNc4qFar,200,0, test, 7, 1, 15, 1, 2, 2, 1, 0.35, 0.45, right, 2, 0.35, 0.45, 0.55, 0.65, 0.7049524000030942, 0, 9.000000,83.000000,1.000000,6.000000,0.500000,1.000000
pNc4qFar,200,0, test, 7, 1, 16, 1, 3, 3, 1, 0.35, 0.55, right, 2, 0.35, 0.45, 0.55, 0.65, 0.9175987000344321, 1, 10.000000,84.000000,1.000000,6.000000,0.500000,1.000000
pNc4qFar,200,0, test, 7, 1, 17, 1, 2, 2, 1, 0.35, 0.45, right, 2, 0.35, 0.45, 0.55, 0.65, 2.8490617999923415, 0, 10.000000,84.000000,1.000000,6.000000,0.500000,1.000000
pNc4qFar,200,0, test, 7, 1, 18, 2, 3, 2, 3, 0.45, 0.55, left, 1, 0.35, 0.45, 0.55, 0.65, 0.4266887999838218, 0, 10.000000,84.000000,1.000000,6.000000,0.500000,1.000000
pNc4qFar,200,0, test, 7, 1, 19, 4, 2, 2, 4, 0.65, 0.45, right, 2, 0.35, 0.45, 0.55, 0.65, 0.835644599981606, 1, 11.000000,85.000000,1.000000,6.000000,0.500000,1.000000
pNc4qFar,200,0, test, 7, 1, 20, 4, 2, 2, 4, 0.65, 0.45, right, 2, 0.35, 0.45, 0.55, 0.65, 1.6351680999505334, 1, 12.000000,86.000000,1.000000,6.000000,0.500000,1.000000
pNc4qFar,200,0, test, 7, 1, 21, 2, 4, 2, 4, 0.45, 0.65, left, 1, 0.35, 0.45, 0.55, 0.65, 1.50687260000268, 0, 12.000000,86.000000,1.000000,6.000000,0.500000,1.000000
pNc4qFar,200,0, test, 7, 1, 22, 4, 1, 1, 4, 0.65, 0.35, right, 2, 0.35, 0.45, 0.55, 0.65, 0.5870180999627337, 1, 13.000000,87.000000,1.000000,6.000000,0.500000,1.000000
pNc4qFar,200,0, test, 7, 1, 23, 4, 2, 2, 4, 0.65, 0.45, right, 2, 0.35, 0.45, 0.55, 0.65, 0.4408813999616541, 1, 14.000000,88.000000,1.000000,6.000000,0.500000,1.000000
pNc4qFar,200,0, test, 7, 1, 24, 4, 1, 1, 4, 0.65, 0.35, right, 2, 0.35, 0.45, 0.55, 0.65, 0.39474339998560026, 0, 14.000000,88.000000,1.000000,6.000000,0.500000,1.000000
pNc4qFar,200,0, test, 7, 1, 25, 3, 4, 3, 4, 0.55, 0.65, left, 1, 0.35, 0.45, 0.55, 0.65, 1.3849978999933228, 1, 15.000000,89.000000,1.000000,6.000000,0.500000,1.000000
pNc4qFar,200,0, test, 8, 7, 1, 1, 3, 3, 1, 0.35, 0.55, right, 2, 0.35, 0.45, 0.55, 0.65, 1.4787028999999166, 1, 1.000000,90.000000,1.000000,6.000000,0.500000,1.000000
pNc4qFar,200,0, test, 8, 7, 2, 3, 2, 3, 2, 0.55, 0.45, left, 1, 0.35, 0.45, 0.55, 0.65, 0.43117649998748675, 1, 2.000000,91.000000,1.000000,6.000000,0.500000,1.000000
pNc4qFar,200,0, test, 8, 7, 3, 1, 4, 4, 1, 0.35, 0.65, right, 2, 0.35, 0.45, 0.55, 0.65, 1.8516143000451848, 1, 3.000000,92.000000,1.000000,6.000000,0.500000,1.000000
pNc4qFar,200,0, test, 8, 7, 4, 3, 1, 3, 1, 0.55, 0.35, left, 1, 0.35, 0.45, 0.55, 0.65, 2.8461661000037566, 1, 4.000000,93.000000,1.000000,6.000000,0.500000,1.000000
pNc4qFar,200,0, test, 8, 7, 5, 1, 3, 3, 1, 0.35, 0.55, right, 2, 0.35, 0.45, 0.55, 0.65, 0.4796483000391163, 0, 4.000000,93.000000,1.000000,6.000000,0.500000,1.000000
pNc4qFar,200,0, test, 8, 7, 6, 4, 1, 4, 1, 0.65, 0.35, left, 1, 0.35, 0.45, 0.55, 0.65, 2.657319499994628, 1, 5.000000,94.000000,1.000000,6.000000,0.500000,1.000000
pNc4qFar,200,0, test, 8, 7, 7, 2, 3, 2, 3, 0.45, 0.55, left, 1, 0.35, 0.45, 0.55, 0.65, 1.2528124999953434, 1, 6.000000,95.000000,1.000000,6.000000,0.500000,1.000000
pNc4qFar,200,0, test, 8, 7, 8, 3, 1, 3, 1, 0.55, 0.35, left, 1, 0.35, 0.45, 0.55, 0.65, 2.867919999989681, 1, 7.000000,96.000000,1.000000,6.000000,0.500000,1.000000
pNc4qFar,200,0, test, 8, 7, 9, 1, 3, 1, 3, 0.35, 0.55, left, 1, 0.35, 0.45, 0.55, 0.65, 0.7531582999508828, 0, 7.000000,96.000000,1.000000,6.000000,0.500000,1.000000
pNc4qFar,200,0, test, 8, 7, 10, 4, 1, 4, 1, 0.65, 0.35, left, 1, 0.35, 0.45, 0.55, 0.65, 2.3748512000311166, 1, 8.000000,97.000000,1.000000,6.000000,0.500000,1.000000
pNc4qFar,200,0, test, 8, 7, 11, 2, 1, 1, 2, 0.45, 0.35, right, 2, 0.35, 0.45, 0.55, 0.65, 2.052960900007747, 0, 8.000000,97.000000,1.000000,6.000000,0.500000,1.000000
pNc4qFar,200,0, test, 8, 7, 12, 1, 4, 4, 1, 0.35, 0.65, right, 2, 0.35, 0.45, 0.55, 0.65, 0.5811916000093333, 0, 8.000000,97.000000,1.000000,6.000000,0.500000,1.000000
pNc4qFar,200,0, test, 8, 7, 13, 4, 2, 2, 4, 0.65, 0.45, right, 2, 0.35, 0.45, 0.55, 0.65, 1.5261103000375442, 1, 9.000000,98.000000,1.000000,6.000000,0.500000,1.000000
pNc4qFar,200,0, test, 8, 7, 14, 2, 3, 2, 3, 0.45, 0.55, left, 1, 0.35, 0.45, 0.55, 0.65, 1.3291541000362486, 1, 10.000000,99.000000,1.000000,6.000000,0.500000,1.000000
pNc4qFar,200,0, test, 8, 7, 15, 4, 2, 4, 2, 0.65, 0.45, left, 1, 0.35, 0.45, 0.55, 0.65, 0.8081628000363708, 0, 10.000000,99.000000,1.000000,6.000000,0.500000,1.000000
pNc4qFar,200,0, test, 8, 7, 16, 3, 1, 3, 1, 0.55, 0.35, left, 1, 0.35, 0.45, 0.55, 0.65, 1.2887600000249222, 1, 11.000000,100.000000,1.000000,6.000000,0.500000,1.000000
pNc4qFar,200,0, test, 8, 7, 17, 4, 1, 4, 1, 0.65, 0.35, left, 1, 0.35, 0.45, 0.55, 0.65, 2.234456800040789, 0, 11.000000,100.000000,1.000000,6.000000,0.500000,1.000000
pNc4qFar,200,0, test, 8, 7, 18, 1, 3, 3, 1, 0.35, 0.55, right, 2, 0.35, 0.45, 0.55, 0.65, 1.1930453999666497, 1, 12.000000,101.000000,1.000000,6.000000,0.500000,1.000000
pNc4qFar,200,0, test, 8, 7, 19, 3, 1, 3, 1, 0.55, 0.35, left, 1, 0.35, 0.45, 0.55, 0.65, 1.3211032999679446, 1, 13.000000,102.000000,1.000000,6.000000,0.500000,1.000000
pNc4qFar,200,0, test, 8, 7, 20, 4, 3, 4, 3, 0.65, 0.55, left, 1, 0.35, 0.45, 0.55, 0.65, 1.5349082000320777, 0, 13.000000,102.000000,1.000000,6.000000,0.500000,1.000000
pNc4qFar,200,0, test, 8, 7, 21, 3, 2, 2, 3, 0.55, 0.45, right, 2, 0.35, 0.45, 0.55, 0.65, 0.44628569995984435, 0, 13.000000,102.000000,1.000000,6.000000,0.500000,1.000000
pNc4qFar,200,0, test, 8, 7, 22, 3, 1, 1, 3, 0.55, 0.35, right, 2, 0.35, 0.45, 0.55, 0.65, 2.7277008999953978, 1, 14.000000,103.000000,1.000000,6.000000,0.500000,1.000000
pNc4qFar,200,0, test, 8, 7, 23, 4, 3, 4, 3, 0.65, 0.55, left, 1, 0.35, 0.45, 0.55, 0.65, 3.160795899981167, 1, 15.000000,104.000000,1.000000,6.000000,0.500000,1.000000
pNc4qFar,200,0, test, 8, 7, 24, 3, 4, 4, 3, 0.55, 0.65, right, 2, 0.35, 0.45, 0.55, 0.65, 1.3394328000140376, 1, 16.000000,105.000000,1.000000,6.000000,0.500000,1.000000
pNc4qFar,200,0, test, 8, 7, 25, 2, 3, 3, 2, 0.45, 0.55, right, 2, 0.35, 0.45, 0.55, 0.65, 1.58641789999092, 1, 17.000000,106.000000,1.000000,6.000000,0.500000,1.000000
