ShaharID, group, counterbalance, block_type, block, delay_condition, trial, chosen, unchosen, offer_left_image, offer_right_image, exp_value_chosen, exp_value_unchosen, choice_location, choice_key, exp_value1, exp_value2, exp_value3, exp_value4, RT, reward, coins_per_block, coins_per_task,ITI_duration,rt_deadline,choice_feedback_duration,outcome_duration
VPzDdj72,200,0, practice, 1, 1, 1, 4, 1, 1, 4, 0.65, 0.35, right, 2, 0.35, 0.45, 0.55, 0.65, 1.6616547000594437, 0, 0.000000,0.000000,1.000000,6.000000,0.500000,1.000000
VPzDdj72,200,0, practice, 1, 1, 2, 2, 4, 4, 2, 0.45, 0.65, right, 2, 0.35, 0.45, 0.55, 0.65, 0.7251560003496706, 1, 1.000000,1.000000,1.000000,6.000000,0.500000,1.000000
VPzDdj72,200,0, practice, 1, 1, 3, 4, 2, 4, 2, 0.65, 0.45, left, 1, 0.35, 0.45, 0.55, 0.65, 0.9951709001325071, 1, 2.000000,2.000000,1.000000,6.000000,0.500000,1.000000
VPzDdj72,200,0, practice, 1, 1, 4, 3, 1, 3, 1, 0.55, 0.35, left, 1, 0.35, 0.45, 0.55, 0.65, 1.0925684999674559, 0, 2.000000,2.000000,1.000000,6.000000,0.500000,1.000000
VPzDdj72,200,0, practice, 1, 1, 5, 4, 1, 1, 4, 0.65, 0.35, right, 2, 0.35, 0.45, 0.55, 0.65, 1.7728133997879922, 1, 3.000000,3.000000,1.000000,6.000000,0.500000,1.000000
VPzDdj72,200,0, test, 1, 1, 1, 4, 3, 4, 3, 0.65, 0.55, left, 1, 0.35, 0.45, 0.55, 0.65, 0.588570199906826, 1, 1.000000,4.000000,1.000000,6.000000,0.500000,1.000000
VPzDdj72,200,0, test, 1, 1, 2, 2, 3, 2, 3, 0.45, 0.55, left, 1, 0.35, 0.45, 0.55, 0.65, 1.0985329002141953, 0, 1.000000,4.000000,1.000000,6.000000,0.500000,1.000000
VPzDdj72,200,0, test, 1, 1, 3, 3, 1, 3, 1, 0.55, 0.35, left, 1, 0.35, 0.45, 0.55, 0.65, 1.1344864000566304, 1, 2.000000,5.000000,1.000000,6.000000,0.500000,1.000000
VPzDdj72,200,0, test, 1, 1, 4, 1, 2, 1, 2, 0.35, 0.45, left, 1, 0.35, 0.45, 0.55, 0.65, 0.9777533002197742, 1, 3.000000,6.000000,1.000000,6.000000,0.500000,1.000000
VPzDdj72,200,0, test, 1, 1, 5, 3, 4, 4, 3, 0.55, 0.65, right, 2, 0.35, 0.45, 0.55, 0.65, 0.9888102002441883, 0, 3.000000,6.000000,1.000000,6.000000,0.500000,1.000000
VPzDdj72,200,0, test, 1, 1, 6, 1, 3, 3, 1, 0.35, 0.55, right, 2, 0.35, 0.45, 0.55, 0.65, 0.9891325002536178, 0, 3.000000,6.000000,1.000000,6.000000,0.500000,1.000000
VPzDdj72,200,0, test, 1, 1, 7, 2, 1, 2, 1, 0.45, 0.35, left, 1, 0.35, 0.45, 0.55, 0.65, 0.8674095999449492, 0, 3.000000,6.000000,1.000000,6.000000,0.500000,1.000000
VPzDdj72,200,0, test, 1, 1, 8, 3, 2, 2, 3, 0.55, 0.45, right, 2, 0.35, 0.45, 0.55, 0.65, 0.9210478998720646, 0, 3.000000,6.000000,1.000000,6.000000,0.500000,1.000000
VPzDdj72,200,0, test, 1, 1, 9, 1, 2, 2, 1, 0.35, 0.45, right, 2, 0.35, 0.45, 0.55, 0.65, 0.8571359999477863, 0, 3.000000,6.000000,1.000000,6.000000,0.500000,1.000000
VPzDdj72,200,0, test, 1, 1, 10, 4, 2, 4, 2, 0.65, 0.45, left, 1, 0.35, 0.45, 0.55, 0.65, 1.750763500109315, 1, 4.000000,7.000000,1.000000,6.000000,0.500000,1.000000
VPzDdj72,200,0, test, 1, 1, 11, 3, 1, 1, 3, 0.55, 0.35, right, 2, 0.35, 0.45, 0.55, 0.65, 1.092048500198871, 0, 4.000000,7.000000,1.000000,6.000000,0.500000,1.000000
VPzDdj72,200,0, test, 1, 1, 12, 2, 3, 2, 3, 0.45, 0.55, left, 1, 0.35, 0.45, 0.55, 0.65, 1.8765807999297976, 1, 5.000000,8.000000,1.000000,6.000000,0.500000,1.000000
VPzDdj72,200,0, test, 1, 1, 13, 4, 1, 1, 4, 0.65, 0.35, right, 2, 0.35, 0.45, 0.55, 0.65, 0.44985990040004253, 1, 6.000000,9.000000,1.000000,6.000000,0.500000,1.000000
VPzDdj72,200,0, test, 1, 1, 14, 4, 2, 2, 4, 0.65, 0.45, right, 2, 0.35, 0.45, 0.55, 0.65, 0.5325802997685969, 1, 7.000000,10.000000,1.000000,6.000000,0.500000,1.000000
VPzDdj72,200,0, test, 1, 1, 15, 2, 3, 3, 2, 0.45, 0.55, right, 2, 0.35, 0.45, 0.55, 0.65, 0.6128018000163138, 1, 8.000000,11.000000,1.000000,6.000000,0.500000,1.000000
VPzDdj72,200,0, test, 1, 1, 16, 4, 1, 1, 4, 0.65, 0.35, right, 2, 0.35, 0.45, 0.55, 0.65, 0.4041570997796953, 1, 9.000000,12.000000,1.000000,6.000000,0.500000,1.000000
VPzDdj72,200,0, test, 1, 1, 17, 4, 1, 1, 4, 0.65, 0.35, right, 2, 0.35, 0.45, 0.55, 0.65, 0.3994261003099382, 0, 9.000000,12.000000,1.000000,6.000000,0.500000,1.000000
VPzDdj72,200,0, test, 1, 1, 18, 2, 1, 2, 1, 0.45, 0.35, left, 1, 0.35, 0.45, 0.55, 0.65, 1.1215601996518672, 1, 10.000000,13.000000,1.000000,6.000000,0.500000,1.000000
VPzDdj72,200,0, test, 1, 1, 19, 2, 4, 4, 2, 0.45, 0.65, right, 2, 0.35, 0.45, 0.55, 0.65, 0.38449000008404255, 1, 11.000000,14.000000,1.000000,6.000000,0.500000,1.000000
VPzDdj72,200,0, test, 1, 1, 20, 2, 4, 4, 2, 0.45, 0.65, right, 2, 0.35, 0.45, 0.55, 0.65, 0.5058955000713468, 0, 11.000000,14.000000,1.000000,6.000000,0.500000,1.000000
VPzDdj72,200,0, test, 1, 1, 21, 1, 3, 3, 1, 0.35, 0.55, right, 2, 0.35, 0.45, 0.55, 0.65, 0.9416192998178303, 0, 11.000000,14.000000,1.000000,6.000000,0.500000,1.000000
VPzDdj72,200,0, test, 1, 1, 22, 3, 1, 3, 1, 0.55, 0.35, left, 1, 0.35, 0.45, 0.55, 0.65, 0.836378799751401, 0, 11.000000,14.000000,1.000000,6.000000,0.500000,1.000000
VPzDdj72,200,0, test, 1, 1, 23, 4, 3, 4, 3, 0.65, 0.55, left, 1, 0.35, 0.45, 0.55, 0.65, 0.6350604998879135, 1, 12.000000,15.000000,1.000000,6.000000,0.500000,1.000000
VPzDdj72,200,0, test, 1, 1, 24, 4, 2, 4, 2, 0.65, 0.45, left, 1, 0.35, 0.45, 0.55, 0.65, 0.3823429001495242, 1, 13.000000,16.000000,1.000000,6.000000,0.500000,1.000000
VPzDdj72,200,0, test, 1, 1, 25, 3, 1, 3, 1, 0.55, 0.35, left, 1, 0.35, 0.45, 0.55, 0.65, 0.9047114001587033, 1, 14.000000,17.000000,1.000000,6.000000,0.500000,1.000000
VPzDdj72,200,0, test, 2, 7, 1, 4, 3, 4, 3, 0.65, 0.55, left, 1, 0.35, 0.45, 0.55, 0.65, 1.7071778001263738, 0, 0.000000,17.000000,1.000000,6.000000,0.500000,1.000000
VPzDdj72,200,0, test, 2, 7, 2, 2, 1, 2, 1, 0.45, 0.35, left, 1, 0.35, 0.45, 0.55, 0.65, 0.8251662002876401, 1, 1.000000,18.000000,1.000000,6.000000,0.500000,1.000000
VPzDdj72,200,0, test, 2, 7, 3, 1, 4, 4, 1, 0.35, 0.65, right, 2, 0.35, 0.45, 0.55, 0.65, 0.8051500003784895, 1, 2.000000,19.000000,1.000000,6.000000,0.500000,1.000000
VPzDdj72,200,0, test, 2, 7, 4, 3, 2, 2, 3, 0.55, 0.45, right, 2, 0.35, 0.45, 0.55, 0.65, 0.6595724998041987, 1, 3.000000,20.000000,1.000000,6.000000,0.500000,1.000000
VPzDdj72,200,0, test, 2, 7, 5, 2, 1, 1, 2, 0.45, 0.35, right, 2, 0.35, 0.45, 0.55, 0.65, 0.404704200103879, 0, 3.000000,20.000000,1.000000,6.000000,0.500000,1.000000
VPzDdj72,200,0, test, 2, 7, 6, 1, 4, 1, 4, 0.35, 0.65, left, 1, 0.35, 0.45, 0.55, 0.65, 0.5575373000465333, 0, 3.000000,20.000000,1.000000,6.000000,0.500000,1.000000
VPzDdj72,200,0, test, 2, 7, 7, 3, 2, 3, 2, 0.55, 0.45, left, 1, 0.35, 0.45, 0.55, 0.65, 1.9828689000569284, 1, 4.000000,21.000000,1.000000,6.000000,0.500000,1.000000
VPzDdj72,200,0, test, 2, 7, 8, 3, 1, 1, 3, 0.55, 0.35, right, 2, 0.35, 0.45, 0.55, 0.65, 0.5453576003201306, 1, 5.000000,22.000000,1.000000,6.000000,0.500000,1.000000
VPzDdj72,200,0, test, 2, 7, 9, 2, 4, 2, 4, 0.45, 0.65, left, 1, 0.35, 0.45, 0.55, 0.65, 1.2072383998893201, 0, 5.000000,22.000000,1.000000,6.000000,0.500000,1.000000
VPzDdj72,200,0, test, 2, 7, 10, 3, 4, 4, 3, 0.55, 0.65, right, 2, 0.35, 0.45, 0.55, 0.65, 1.6239734999835491, 1, 6.000000,23.000000,1.000000,6.000000,0.500000,1.000000
VPzDdj72,200,0, test, 2, 7, 11, 3, 2, 2, 3, 0.55, 0.45, right, 2, 0.35, 0.45, 0.55, 0.65, 0.6158249997533858, 1, 7.000000,24.000000,1.000000,6.000000,0.500000,1.000000
VPzDdj72,200,0, test, 2, 7, 12, 2, 1, 1, 2, 0.45, 0.35, right, 2, 0.35, 0.45, 0.55, 0.65, 1.2267124000936747, 1, 8.000000,25.000000,1.000000,6.000000,0.500000,1.000000
VPzDdj72,200,0, test, 2, 7, 13, 2, 1, 2, 1, 0.45, 0.35, left, 1, 0.35, 0.45, 0.55, 0.65, 0.7859273003414273, 1, 9.000000,26.000000,1.000000,6.000000,0.500000,1.000000
VPzDdj72,200,0, test, 2, 7, 14, 4, 1, 1, 4, 0.65, 0.35, right, 2, 0.35, 0.45, 0.55, 0.65, 1.2709543001838028, 0, 9.000000,26.000000,1.000000,6.000000,0.500000,1.000000
VPzDdj72,200,0, test, 2, 7, 15, 1, 4, 1, 4, 0.35, 0.65, left, 1, 0.35, 0.45, 0.55, 0.65, 0.891559099778533, 0, 9.000000,26.000000,1.000000,6.000000,0.500000,1.000000
VPzDdj72,200,0, test, 2, 7, 16, 2, 1, 2, 1, 0.45, 0.35, left, 1, 0.35, 0.45, 0.55, 0.65, 0.623337599914521, 0, 9.000000,26.000000,1.000000,6.000000,0.500000,1.000000
VPzDdj72,200,0, test, 2, 7, 17, 1, 2, 2, 1, 0.35, 0.45, right, 2, 0.35, 0.45, 0.55, 0.65, 2.6637524999678135, 0, 9.000000,26.000000,1.000000,6.000000,0.500000,1.000000
VPzDdj72,200,0, test, 2, 7, 18, 3, 4, 4, 3, 0.55, 0.65, right, 2, 0.35, 0.45, 0.55, 0.65, 0.9337150999344885, 0, 9.000000,26.000000,1.000000,6.000000,0.500000,1.000000
VPzDdj72,200,0, test, 2, 7, 19, 1, 3, 1, 3, 0.35, 0.55, left, 1, 0.35, 0.45, 0.55, 0.65, 1.1329832999035716, 1, 10.000000,27.000000,1.000000,6.000000,0.500000,1.000000
VPzDdj72,200,0, test, 2, 7, 20, 2, 4, 4, 2, 0.45, 0.65, right, 2, 0.35, 0.45, 0.55, 0.65, 1.7400302002206445, 0, 10.000000,27.000000,1.000000,6.000000,0.500000,1.000000
VPzDdj72,200,0, test, 2, 7, 21, 4, 2, 4, 2, 0.65, 0.45, left, 1, 0.35, 0.45, 0.55, 0.65, 0.727346200030297, 0, 10.000000,27.000000,1.000000,6.000000,0.500000,1.000000
VPzDdj72,200,0, test, 2, 7, 22, 3, 4, 3, 4, 0.55, 0.65, left, 1, 0.35, 0.45, 0.55, 0.65, 1.9155231001786888, 0, 10.000000,27.000000,1.000000,6.000000,0.500000,1.000000
VPzDdj72,200,0, test, 2, 7, 23, 1, 4, 4, 1, 0.35, 0.65, right, 2, 0.35, 0.45, 0.55, 0.65, 0.9390810001641512, 1, 11.000000,28.000000,1.000000,6.000000,0.500000,1.000000
VPzDdj72,200,0, test, 2, 7, 24, 2, 4, 2, 4, 0.45, 0.65, left, 1, 0.35, 0.45, 0.55, 0.65, 2.069124300032854, 0, 11.000000,28.000000,1.000000,6.000000,0.500000,1.000000
VPzDdj72,200,0, test, 2, 7, 25, 1, 4, 4, 1, 0.35, 0.65, right, 2, 0.35, 0.45, 0.55, 0.65, 0.9430252998135984, 1, 12.000000,29.000000,1.000000,6.000000,0.500000,1.000000
VPzDdj72,200,0, test, 3, 1, 1, 3, 1, 3, 1, 0.55, 0.35, left, 1, 0.35, 0.45, 0.55, 0.65, 0.6430323999375105, 1, 1.000000,30.000000,1.000000,6.000000,0.500000,1.000000
VPzDdj72,200,0, test, 3, 1, 2, 3, 4, 3, 4, 0.55, 0.65, left, 1, 0.35, 0.45, 0.55, 0.65, 0.447324899956584, 0, 1.000000,30.000000,1.000000,6.000000,0.500000,1.000000
VPzDdj72,200,0, test, 3, 1, 3, 2, 1, 1, 2, 0.45, 0.35, right, 2, 0.35, 0.45, 0.55, 0.65, 0.42911560041829944, 0, 1.000000,30.000000,1.000000,6.000000,0.500000,1.000000
VPzDdj72,200,0, test, 3, 1, 4, 4, 1, 1, 4, 0.65, 0.35, right, 2, 0.35, 0.45, 0.55, 0.65, 1.0880272001959383, 1, 2.000000,31.000000,1.000000,6.000000,0.500000,1.000000
VPzDdj72,200,0, test, 3, 1, 5, 3, 1, 3, 1, 0.55, 0.35, left, 1, 0.35, 0.45, 0.55, 0.65, 1.7369776000268757, 1, 3.000000,32.000000,1.000000,6.000000,0.500000,1.000000
VPzDdj72,200,0, test, 3, 1, 6, 1, 2, 1, 2, 0.35, 0.45, left, 1, 0.35, 0.45, 0.55, 0.65, 1.0792938000522554, 1, 4.000000,33.000000,1.000000,6.000000,0.500000,1.000000
VPzDdj72,200,0, test, 3, 1, 7, 1, 3, 3, 1, 0.35, 0.55, right, 2, 0.35, 0.45, 0.55, 0.65, 0.5999341998249292, 0, 4.000000,33.000000,1.000000,6.000000,0.500000,1.000000
VPzDdj72,200,0, test, 3, 1, 8, 4, 2, 4, 2, 0.65, 0.45, left, 1, 0.35, 0.45, 0.55, 0.65, 0.8250533998943865, 1, 5.000000,34.000000,1.000000,6.000000,0.500000,1.000000
VPzDdj72,200,0, test, 3, 1, 9, 3, 1, 3, 1, 0.55, 0.35, left, 1, 0.35, 0.45, 0.55, 0.65, 2.115866200067103, 0, 5.000000,34.000000,1.000000,6.000000,0.500000,1.000000
VPzDdj72,200,0, test, 3, 1, 10, 1, 3, 1, 3, 0.35, 0.55, left, 1, 0.35, 0.45, 0.55, 0.65, 1.435273400042206, 1, 6.000000,35.000000,1.000000,6.000000,0.500000,1.000000
VPzDdj72,200,0, test, 3, 1, 11, 1, 3, 3, 1, 0.35, 0.55, right, 2, 0.35, 0.45, 0.55, 0.65, 0.3577990001067519, 0, 6.000000,35.000000,1.000000,6.000000,0.500000,1.000000
VPzDdj72,200,0, test, 3, 1, 12, 3, 2, 2, 3, 0.55, 0.45, right, 2, 0.35, 0.45, 0.55, 0.65, 1.2279547997750342, 1, 7.000000,36.000000,1.000000,6.000000,0.500000,1.000000
VPzDdj72,200,0, test, 3, 1, 13, 4, 1, 1, 4, 0.65, 0.35, right, 2, 0.35, 0.45, 0.55, 0.65, 1.7711756001226604, 0, 7.000000,36.000000,1.000000,6.000000,0.500000,1.000000
VPzDdj72,200,0, test, 3, 1, 14, 3, 2, 2, 3, 0.55, 0.45, right, 2, 0.35, 0.45, 0.55, 0.65, 0.44637890020385385, 0, 7.000000,36.000000,1.000000,6.000000,0.500000,1.000000
VPzDdj72,200,0, test, 3, 1, 15, 2, 1, 1, 2, 0.45, 0.35, right, 2, 0.35, 0.45, 0.55, 0.65, 1.1657970999367535, 0, 7.000000,36.000000,1.000000,6.000000,0.500000,1.000000
VPzDdj72,200,0, test, 3, 1, 16, 3, 2, 3, 2, 0.55, 0.45, left, 1, 0.35, 0.45, 0.55, 0.65, 1.1455437997356057, 1, 8.000000,37.000000,1.000000,6.000000,0.500000,1.000000
VPzDdj72,200,0, test, 3, 1, 17, 4, 2, 2, 4, 0.65, 0.45, right, 2, 0.35, 0.45, 0.55, 0.65, 1.1333733000792563, 1, 9.000000,38.000000,1.000000,6.000000,0.500000,1.000000
VPzDdj72,200,0, test, 3, 1, 18, 4, 1, 4, 1, 0.65, 0.35, left, 1, 0.35, 0.45, 0.55, 0.65, 1.2395466002635658, 1, 10.000000,39.000000,1.000000,6.000000,0.500000,1.000000
VPzDdj72,200,0, test, 3, 1, 19, 4, 2, 4, 2, 0.65, 0.45, left, 1, 0.35, 0.45, 0.55, 0.65, 0.7935077999718487, 0, 10.000000,39.000000,1.000000,6.000000,0.500000,1.000000
VPzDdj72,200,0, test, 3, 1, 20, 1, 4, 1, 4, 0.35, 0.65, left, 1, 0.35, 0.45, 0.55, 0.65, 0.60465979995206, 1, 11.000000,40.000000,1.000000,6.000000,0.500000,1.000000
VPzDdj72,200,0, test, 3, 1, 21, 2, 4, 4, 2, 0.45, 0.65, right, 2, 0.35, 0.45, 0.55, 0.65, 1.0200046999379992, 0, 11.000000,40.000000,1.000000,6.000000,0.500000,1.000000
VPzDdj72,200,0, test, 3, 1, 22, 4, 2, 4, 2, 0.65, 0.45, left, 1, 0.35, 0.45, 0.55, 0.65, 0.7201221003197134, 1, 12.000000,41.000000,1.000000,6.000000,0.500000,1.000000
VPzDdj72,200,0, test, 3, 1, 23, 1, 4, 1, 4, 0.35, 0.65, left, 1, 0.35, 0.45, 0.55, 0.65, 0.47956439992412925, 1, 13.000000,42.000000,1.000000,6.000000,0.500000,1.000000
VPzDdj72,200,0, test, 3, 1, 24, 1, 2, 1, 2, 0.35, 0.45, left, 1, 0.35, 0.45, 0.55, 0.65, 0.5605015000328422, 0, 13.000000,42.000000,1.000000,6.000000,0.500000,1.000000
VPzDdj72,200,0, test, 3, 1, 25, 4, 2, 2, 4, 0.65, 0.45, right, 2, 0.35, 0.45, 0.55, 0.65, 0.4738288000226021, 1, 14.000000,43.000000,1.000000,6.000000,0.500000,1.000000
VPzDdj72,200,0, test, 4, 7, 1, 4, 3, 3, 4, 0.65, 0.55, right, 2, 0.35, 0.45, 0.55, 0.65, 0.4030903000384569, 0, 0.000000,43.000000,1.000000,6.000000,0.500000,1.000000
VPzDdj72,200,0, test, 4, 7, 2, 3, 1, 3, 1, 0.55, 0.35, left, 1, 0.35, 0.45, 0.55, 0.65, 0.6965489001013339, 0, 0.000000,43.000000,1.000000,6.000000,0.500000,1.000000
VPzDdj72,200,0, test, 4, 7, 3, 4, 3, 4, 3, 0.65, 0.55, left, 1, 0.35, 0.45, 0.55, 0.65, 1.9685781998559833, 1, 1.000000,44.000000,1.000000,6.000000,0.500000,1.000000
VPzDdj72,200,0, test, 4, 7, 4, 2, 1, 2, 1, 0.45, 0.35, left, 1, 0.35, 0.45, 0.55, 0.65, 1.246880799997598, 1, 2.000000,45.000000,1.000000,6.000000,0.500000,1.000000
VPzDdj72,200,0, test, 4, 7, 5, 4, 3, 4, 3, 0.65, 0.55, left, 1, 0.35, 0.45, 0.55, 0.65, 0.8216325002722442, 1, 3.000000,46.000000,1.000000,6.000000,0.500000,1.000000
VPzDdj72,200,0, test, 4, 7, 6, 4, 3, 3, 4, 0.65, 0.55, right, 2, 0.35, 0.45, 0.55, 0.65, 0.491512400098145, 0, 3.000000,46.000000,1.000000,6.000000,0.500000,1.000000
VPzDdj72,200,0, test, 4, 7, 7, 2, 1, 1, 2, 0.45, 0.35, right, 2, 0.35, 0.45, 0.55, 0.65, 0.5836710999719799, 0, 3.000000,46.000000,1.000000,6.000000,0.500000,1.000000
VPzDdj72,200,0, test, 4, 7, 8, 1, 4, 4, 1, 0.35, 0.65, right, 2, 0.35, 0.45, 0.55, 0.65, 0.5374270998872817, 1, 4.000000,47.000000,1.000000,6.000000,0.500000,1.000000
VPzDdj72,200,0, test, 4, 7, 9, 3, 4, 4, 3, 0.55, 0.65, right, 2, 0.35, 0.45, 0.55, 0.65, 0.9090848001651466, 1, 5.000000,48.000000,1.000000,6.000000,0.500000,1.000000
VPzDdj72,200,0, test, 4, 7, 10, 1, 4, 4, 1, 0.35, 0.65, right, 2, 0.35, 0.45, 0.55, 0.65, 0.523880900349468, 0, 5.000000,48.000000,1.000000,6.000000,0.500000,1.000000
VPzDdj72,200,0, test, 4, 7, 11, 2, 4, 2, 4, 0.45, 0.65, left, 1, 0.35, 0.45, 0.55, 0.65, 1.0400429000146687, 1, 6.000000,49.000000,1.000000,6.000000,0.500000,1.000000
VPzDdj72,200,0, test, 4, 7, 12, 2, 4, 4, 2, 0.45, 0.65, right, 2, 0.35, 0.45, 0.55, 0.65, 0.5219152998179197, 0, 6.000000,49.000000,1.000000,6.000000,0.500000,1.000000
VPzDdj72,200,0, test, 4, 7, 13, 1, 2, 2, 1, 0.35, 0.45, right, 2, 0.35, 0.45, 0.55, 0.65, 1.9257624000310898, 0, 6.000000,49.000000,1.000000,6.000000,0.500000,1.000000
VPzDdj72,200,0, test, 4, 7, 14, 3, 1, 1, 3, 0.55, 0.35, right, 2, 0.35, 0.45, 0.55, 0.65, 1.289975999854505, 1, 7.000000,50.000000,1.000000,6.000000,0.500000,1.000000
VPzDdj72,200,0, test, 4, 7, 15, 4, 2, 2, 4, 0.65, 0.45, right, 2, 0.35, 0.45, 0.55, 0.65, 1.3556661000475287, 1, 8.000000,51.000000,1.000000,6.000000,0.500000,1.000000
VPzDdj72,200,0, test, 4, 7, 16, 4, 3, 3, 4, 0.65, 0.55, right, 2, 0.35, 0.45, 0.55, 0.65, 2.0368611002340913, 1, 9.000000,52.000000,1.000000,6.000000,0.500000,1.000000
VPzDdj72,200,0, test, 4, 7, 17, 2, 1, 1, 2, 0.45, 0.35, right, 2, 0.35, 0.45, 0.55, 0.65, 2.2641822998411953, 1, 10.000000,53.000000,1.000000,6.000000,0.500000,1.000000
VPzDdj72,200,0, test, 4, 7, 18, 4, 1, 1, 4, 0.65, 0.35, right, 2, 0.35, 0.45, 0.55, 0.65, 1.3989089000970125, 1, 11.000000,54.000000,1.000000,6.000000,0.500000,1.000000
VPzDdj72,200,0, test, 4, 7, 19, 2, 3, 2, 3, 0.45, 0.55, left, 1, 0.35, 0.45, 0.55, 0.65, 1.4871461000293493, 1, 12.000000,55.000000,1.000000,6.000000,0.500000,1.000000
VPzDdj72,200,0, test, 4, 7, 20, 2, 3, 3, 2, 0.45, 0.55, right, 2, 0.35, 0.45, 0.55, 0.65, 1.2719411998987198, 0, 12.000000,55.000000,1.000000,6.000000,0.500000,1.000000
VPzDdj72,200,0, test, 4, 7, 21, 3, 2, 2, 3, 0.55, 0.45, right, 2, 0.35, 0.45, 0.55, 0.65, 0.8222043998539448, 1, 13.000000,56.000000,1.000000,6.000000,0.500000,1.000000
VPzDdj72,200,0, test, 4, 7, 22, 4, 1, 4, 1, 0.65, 0.35, left, 1, 0.35, 0.45, 0.55, 0.65, 1.387319500092417, 1, 14.000000,57.000000,1.000000,6.000000,0.500000,1.000000
VPzDdj72,200,0, test, 4, 7, 23, 4, 3, 3, 4, 0.65, 0.55, right, 2, 0.35, 0.45, 0.55, 0.65, 1.2363610998727381, 0, 14.000000,57.000000,1.000000,6.000000,0.500000,1.000000
VPzDdj72,200,0, test, 4, 7, 24, 2, 4, 4, 2, 0.45, 0.65, right, 2, 0.35, 0.45, 0.55, 0.65, 0.7602484999224544, 1, 15.000000,58.000000,1.000000,6.000000,0.500000,1.000000
VPzDdj72,200,0, test, 4, 7, 25, 3, 4, 3, 4, 0.55, 0.65, left, 1, 0.35, 0.45, 0.55, 0.65, 1.7019612002186477, 0, 15.000000,58.000000,1.000000,6.000000,0.500000,1.000000
VPzDdj72,200,0, test, 5, 1, 1, 1, 4, 4, 1, 0.35, 0.65, right, 2, 0.35, 0.45, 0.55, 0.65, 0.8880832996219397, 1, 1.000000,59.000000,1.000000,6.000000,0.500000,1.000000
VPzDdj72,200,0, test, 5, 1, 2, 3, 2, 3, 2, 0.55, 0.45, left, 1, 0.35, 0.45, 0.55, 0.65, 0.9659649999812245, 0, 1.000000,59.000000,1.000000,6.000000,0.500000,1.000000
VPzDdj72,200,0, test, 5, 1, 3, 4, 3, 4, 3, 0.65, 0.55, left, 1, 0.35, 0.45, 0.55, 0.65, 0.735113900154829, 1, 2.000000,60.000000,1.000000,6.000000,0.500000,1.000000
VPzDdj72,200,0, test, 5, 1, 4, 4, 1, 1, 4, 0.65, 0.35, right, 2, 0.35, 0.45, 0.55, 0.65, 1.23497169977054, 1, 3.000000,61.000000,1.000000,6.000000,0.500000,1.000000
VPzDdj72,200,0, test, 5, 1, 5, 2, 3, 3, 2, 0.45, 0.55, right, 2, 0.35, 0.45, 0.55, 0.65, 1.71827149996534, 1, 4.000000,62.000000,1.000000,6.000000,0.500000,1.000000
VPzDdj72,200,0, test, 5, 1, 6, 1, 3, 1, 3, 0.35, 0.55, left, 1, 0.35, 0.45, 0.55, 0.65, 1.4988907002843916, 0, 4.000000,62.000000,1.000000,6.000000,0.500000,1.000000
VPzDdj72,200,0, test, 5, 1, 7, 2, 3, 2, 3, 0.45, 0.55, left, 1, 0.35, 0.45, 0.55, 0.65, 0.7221457003615797, 0, 4.000000,62.000000,1.000000,6.000000,0.500000,1.000000
VPzDdj72,200,0, test, 5, 1, 8, 4, 3, 3, 4, 0.65, 0.55, right, 2, 0.35, 0.45, 0.55, 0.65, 0.3461674000136554, 1, 5.000000,63.000000,1.000000,6.000000,0.500000,1.000000
VPzDdj72,200,0, test, 5, 1, 9, 3, 1, 3, 1, 0.55, 0.35, left, 1, 0.35, 0.45, 0.55, 0.65, 1.0122638000175357, 1, 6.000000,64.000000,1.000000,6.000000,0.500000,1.000000
VPzDdj72,200,0, test, 5, 1, 10, 3, 4, 3, 4, 0.55, 0.65, left, 1, 0.35, 0.45, 0.55, 0.65, 0.5837225001305342, 0, 6.000000,64.000000,1.000000,6.000000,0.500000,1.000000
VPzDdj72,200,0, test, 5, 1, 11, 4, 1, 1, 4, 0.65, 0.35, right, 2, 0.35, 0.45, 0.55, 0.65, 0.32565969973802567, 1, 7.000000,65.000000,1.000000,6.000000,0.500000,1.000000
VPzDdj72,200,0, test, 5, 1, 12, 4, 3, 4, 3, 0.65, 0.55, left, 1, 0.35, 0.45, 0.55, 0.65, 0.7479849001392722, 1, 8.000000,66.000000,1.000000,6.000000,0.500000,1.000000
VPzDdj72,200,0, test, 5, 1, 13, 2, 1, 2, 1, 0.45, 0.35, left, 1, 0.35, 0.45, 0.55, 0.65, 1.3836958999745548, 1, 9.000000,67.000000,1.000000,6.000000,0.500000,1.000000
VPzDdj72,200,0, test, 5, 1, 14, 4, 3, 3, 4, 0.65, 0.55, right, 2, 0.35, 0.45, 0.55, 0.65, 1.4498370001092553, 1, 10.000000,68.000000,1.000000,6.000000,0.500000,1.000000
VPzDdj72,200,0, test, 5, 1, 15, 1, 3, 3, 1, 0.35, 0.55, right, 2, 0.35, 0.45, 0.55, 0.65, 1.5513408998958766, 0, 10.000000,68.000000,1.000000,6.000000,0.500000,1.000000
VPzDdj72,200,0, test, 5, 1, 16, 2, 1, 2, 1, 0.45, 0.35, left, 1, 0.35, 0.45, 0.55, 0.65, 0.9826103001832962, 1, 11.000000,69.000000,1.000000,6.000000,0.500000,1.000000
VPzDdj72,200,0, test, 5, 1, 17, 2, 4, 2, 4, 0.45, 0.65, left, 1, 0.35, 0.45, 0.55, 0.65, 1.0638559004291892, 0, 11.000000,69.000000,1.000000,6.000000,0.500000,1.000000
VPzDdj72,200,0, test, 5, 1, 18, 1, 2, 1, 2, 0.35, 0.45, left, 1, 0.35, 0.45, 0.55, 0.65, 0.7824499001726508, 0, 11.000000,69.000000,1.000000,6.000000,0.500000,1.000000
VPzDdj72,200,0, test, 5, 1, 19, 4, 1, 1, 4, 0.65, 0.35, right, 2, 0.35, 0.45, 0.55, 0.65, 0.46335749980062246, 1, 12.000000,70.000000,1.000000,6.000000,0.500000,1.000000
VPzDdj72,200,0, test, 5, 1, 20, 4, 1, 4, 1, 0.65, 0.35, left, 1, 0.35, 0.45, 0.55, 0.65, 0.5421769004315138, 0, 12.000000,70.000000,1.000000,6.000000,0.500000,1.000000
VPzDdj72,200,0, test, 5, 1, 21, 4, 1, 1, 4, 0.65, 0.35, right, 2, 0.35, 0.45, 0.55, 0.65, 0.5836670999415219, 1, 13.000000,71.000000,1.000000,6.000000,0.500000,1.000000
VPzDdj72,200,0, test, 5, 1, 22, 4, 1, 1, 4, 0.65, 0.35, right, 2, 0.35, 0.45, 0.55, 0.65, 0.6805845997296274, 1, 14.000000,72.000000,1.000000,6.000000,0.500000,1.000000
VPzDdj72,200,0, test, 5, 1, 23, 2, 1, 2, 1, 0.45, 0.35, left, 1, 0.35, 0.45, 0.55, 0.65, 1.2143093002960086, 1, 15.000000,73.000000,1.000000,6.000000,0.500000,1.000000
VPzDdj72,200,0, test, 5, 1, 24, 4, 1, 1, 4, 0.65, 0.35, right, 2, 0.35, 0.45, 0.55, 0.65, 0.9229125999845564, 1, 16.000000,74.000000,1.000000,6.000000,0.500000,1.000000
VPzDdj72,200,0, test, 5, 1, 25, 3, 1, 3, 1, 0.55, 0.35, left, 1, 0.35, 0.45, 0.55, 0.65, 1.533392900135368, 1, 17.000000,75.000000,1.000000,6.000000,0.500000,1.000000
VPzDdj72,200,0, test, 6, 7, 1, 2, 4, 2, 4, 0.45, 0.65, left, 1, 0.35, 0.45, 0.55, 0.65, 0.7765333000570536, 0, 0.000000,75.000000,1.000000,6.000000,0.500000,1.000000
VPzDdj72,200,0, test, 6, 7, 2, 4, 3, 4, 3, 0.65, 0.55, left, 1, 0.35, 0.45, 0.55, 0.65, 0.840948199853301, 0, 0.000000,75.000000,1.000000,6.000000,0.500000,1.000000
VPzDdj72,200,0, test, 6, 7, 3, 1, 2, 2, 1, 0.35, 0.45, right, 2, 0.35, 0.45, 0.55, 0.65, 1.2946297000162303, 1, 1.000000,76.000000,1.000000,6.000000,0.500000,1.000000
VPzDdj72,200,0, test, 6, 7, 4, 1, 4, 4, 1, 0.35, 0.65, right, 2, 0.35, 0.45, 0.55, 0.65, 0.7385869002901018, 1, 2.000000,77.000000,1.000000,6.000000,0.500000,1.000000
VPzDdj72,200,0, test, 6, 7, 5, 3, 4, 4, 3, 0.55, 0.65, right, 2, 0.35, 0.45, 0.55, 0.65, 1.1973203998059034, 0, 2.000000,77.000000,1.000000,6.000000,0.500000,1.000000
VPzDdj72,200,0, test, 6, 7, 6, 1, 2, 1, 2, 0.35, 0.45, left, 1, 0.35, 0.45, 0.55, 0.65, 0.5077047999948263, 1, 3.000000,78.000000,1.000000,6.000000,0.500000,1.000000
VPzDdj72,200,0, test, 6, 7, 7, 4, 2, 2, 4, 0.65, 0.45, right, 2, 0.35, 0.45, 0.55, 0.65, 1.2479077000170946, 1, 4.000000,79.000000,1.000000,6.000000,0.500000,1.000000
VPzDdj72,200,0, test, 6, 7, 8, 4, 2, 4, 2, 0.65, 0.45, left, 1, 0.35, 0.45, 0.55, 0.65, 1.050380100030452, 1, 5.000000,80.000000,1.000000,6.000000,0.500000,1.000000
VPzDdj72,200,0, test, 6, 7, 9, 3, 2, 3, 2, 0.55, 0.45, left, 1, 0.35, 0.45, 0.55, 0.65, 1.6296457997523248, 0, 5.000000,80.000000,1.000000,6.000000,0.500000,1.000000
VPzDdj72,200,0, test, 6, 7, 10, 4, 2, 4, 2, 0.65, 0.45, left, 1, 0.35, 0.45, 0.55, 0.65, 1.4776019998826087, 1, 6.000000,81.000000,1.000000,6.000000,0.500000,1.000000
VPzDdj72,200,0, test, 6, 7, 11, 4, 3, 4, 3, 0.65, 0.55, left, 1, 0.35, 0.45, 0.55, 0.65, 0.5230304002761841, 0, 6.000000,81.000000,1.000000,6.000000,0.500000,1.000000
VPzDdj72,200,0, test, 6, 7, 12, 1, 4, 4, 1, 0.35, 0.65, right, 2, 0.35, 0.45, 0.55, 0.65, 0.28655479988083243, 0, 6.000000,81.000000,1.000000,6.000000,0.500000,1.000000
VPzDdj72,200,0, test, 6, 7, 13, 2, 4, 2, 4, 0.45, 0.65, left, 1, 0.35, 0.45, 0.55, 0.65, 0.6246869997121394, 1, 7.000000,82.000000,1.000000,6.000000,0.500000,1.000000
VPzDdj72,200,0, test, 6, 7, 14, 2, 1, 2, 1, 0.45, 0.35, left, 1, 0.35, 0.45, 0.55, 0.65, 0.342469799797982, 1, 8.000000,83.000000,1.000000,6.000000,0.500000,1.000000
VPzDdj72,200,0, test, 6, 7, 15, 3, 4, 4, 3, 0.55, 0.65, right, 2, 0.35, 0.45, 0.55, 0.65, 0.9261247999966145, 1, 9.000000,84.000000,1.000000,6.000000,0.500000,1.000000
VPzDdj72,200,0, test, 6, 7, 16, 3, 1, 3, 1, 0.55, 0.35, left, 1, 0.35, 0.45, 0.55, 0.65, 0.4301682999357581, 0, 9.000000,84.000000,1.000000,6.000000,0.500000,1.000000
VPzDdj72,200,0, test, 6, 7, 17, 2, 3, 2, 3, 0.45, 0.55, left, 1, 0.35, 0.45, 0.55, 0.65, 0.305608700029552, 1, 10.000000,85.000000,1.000000,6.000000,0.500000,1.000000
VPzDdj72,200,0, test, 6, 7, 18, 1, 3, 3, 1, 0.35, 0.55, right, 2, 0.35, 0.45, 0.55, 0.65, 0.8802040000446141, 0, 10.000000,85.000000,1.000000,6.000000,0.500000,1.000000
VPzDdj72,200,0, test, 6, 7, 19, 3, 1, 3, 1, 0.55, 0.35, left, 1, 0.35, 0.45, 0.55, 0.65, 1.5057161999866366, 1, 11.000000,86.000000,1.000000,6.000000,0.500000,1.000000
VPzDdj72,200,0, test, 6, 7, 20, 2, 1, 1, 2, 0.45, 0.35, right, 2, 0.35, 0.45, 0.55, 0.65, 1.090866600163281, 0, 11.000000,86.000000,1.000000,6.000000,0.500000,1.000000
VPzDdj72,200,0, test, 6, 7, 21, 3, 1, 1, 3, 0.55, 0.35, right, 2, 0.35, 0.45, 0.55, 0.65, 0.357283600140363, 0, 11.000000,86.000000,1.000000,6.000000,0.500000,1.000000
VPzDdj72,200,0, test, 6, 7, 22, 4, 1, 4, 1, 0.65, 0.35, left, 1, 0.35, 0.45, 0.55, 0.65, 0.8995198998600245, 1, 12.000000,87.000000,1.000000,6.000000,0.500000,1.000000
VPzDdj72,200,0, test, 6, 7, 23, 4, 1, 4, 1, 0.65, 0.35, left, 1, 0.35, 0.45, 0.55, 0.65, 0.4424862000159919, 1, 13.000000,88.000000,1.000000,6.000000,0.500000,1.000000
VPzDdj72,200,0, test, 6, 7, 24, 1, 2, 1, 2, 0.35, 0.45, left, 1, 0.35, 0.45, 0.55, 0.65, 1.5466535999439657, 0, 13.000000,88.000000,1.000000,6.000000,0.500000,1.000000
VPzDdj72,200,0, test, 6, 7, 25, 4, 2, 2, 4, 0.65, 0.45, right, 2, 0.35, 0.45, 0.55, 0.65, 0.36863959999755025, 1, 14.000000,89.000000,1.000000,6.000000,0.500000,1.000000
VPzDdj72,200,0, test, 7, 1, 1, 3, 2, 3, 2, 0.55, 0.45, left, 1, 0.35, 0.45, 0.55, 0.65, 0.8332785000093281, 1, 1.000000,90.000000,1.000000,6.000000,0.500000,1.000000
VPzDdj72,200,0, test, 7, 1, 2, 3, 1, 1, 3, 0.55, 0.35, right, 2, 0.35, 0.45, 0.55, 0.65, 0.3003661003895104, 1, 2.000000,91.000000,1.000000,6.000000,0.500000,1.000000
VPzDdj72,200,0, test, 7, 1, 3, 1, 4, 1, 4, 0.35, 0.65, left, 1, 0.35, 0.45, 0.55, 0.65, 0.6816882998682559, 0, 2.000000,91.000000,1.000000,6.000000,0.500000,1.000000
VPzDdj72,200,0, test, 7, 1, 4, 4, 2, 4, 2, 0.65, 0.45, left, 1, 0.35, 0.45, 0.55, 0.65, 0.8106795996427536, 1, 3.000000,92.000000,1.000000,6.000000,0.500000,1.000000
VPzDdj72,200,0, test, 7, 1, 5, 2, 1, 1, 2, 0.45, 0.35, right, 2, 0.35, 0.45, 0.55, 0.65, 1.4150497997179627, 0, 3.000000,92.000000,1.000000,6.000000,0.500000,1.000000
VPzDdj72,200,0, test, 7, 1, 6, 1, 2, 1, 2, 0.35, 0.45, left, 1, 0.35, 0.45, 0.55, 0.65, 0.8794851996935904, 0, 3.000000,92.000000,1.000000,6.000000,0.500000,1.000000
VPzDdj72,200,0, test, 7, 1, 7, 3, 1, 1, 3, 0.55, 0.35, right, 2, 0.35, 0.45, 0.55, 0.65, 0.7550886999815702, 0, 3.000000,92.000000,1.000000,6.000000,0.500000,1.000000
VPzDdj72,200,0, test, 7, 1, 8, 4, 1, 4, 1, 0.65, 0.35, left, 1, 0.35, 0.45, 0.55, 0.65, 0.31395250000059605, 1, 4.000000,93.000000,1.000000,6.000000,0.500000,1.000000
VPzDdj72,200,0, test, 7, 1, 9, 4, 3, 3, 4, 0.65, 0.55, right, 2, 0.35, 0.45, 0.55, 0.65, 0.48190770018845797, 1, 5.000000,94.000000,1.000000,6.000000,0.500000,1.000000
VPzDdj72,200,0, test, 7, 1, 10, 1, 2, 2, 1, 0.35, 0.45, right, 2, 0.35, 0.45, 0.55, 0.65, 1.4718733001500368, 0, 5.000000,94.000000,1.000000,6.000000,0.500000,1.000000
VPzDdj72,200,0, test, 7, 1, 11, 3, 1, 1, 3, 0.55, 0.35, right, 2, 0.35, 0.45, 0.55, 0.65, 1.4660531003028154, 1, 6.000000,95.000000,1.000000,6.000000,0.500000,1.000000
VPzDdj72,200,0, test, 7, 1, 12, 3, 2, 2, 3, 0.55, 0.45, right, 2, 0.35, 0.45, 0.55, 0.65, 0.6476996000856161, 1, 7.000000,96.000000,1.000000,6.000000,0.500000,1.000000
VPzDdj72,200,0, test, 7, 1, 13, 3, 2, 2, 3, 0.55, 0.45, right, 2, 0.35, 0.45, 0.55, 0.65, 0.5227081002667546, 0, 7.000000,96.000000,1.000000,6.000000,0.500000,1.000000
VPzDdj72,200,0, test, 7, 1, 14, 4, 3, 3, 4, 0.65, 0.55, right, 2, 0.35, 0.45, 0.55, 0.65, 0.47909800009801984, 1, 8.000000,97.000000,1.000000,6.000000,0.500000,1.000000
VPzDdj72,200,0, test, 7, 1, 15, 2, 3, 3, 2, 0.45, 0.55, right, 2, 0.35, 0.45, 0.55, 0.65, 0.8611063999123871, 0, 8.000000,97.000000,1.000000,6.000000,0.500000,1.000000
VPzDdj72,200,0, test, 7, 1, 16, 4, 1, 4, 1, 0.65, 0.35, left, 1, 0.35, 0.45, 0.55, 0.65, 0.29682729998603463, 1, 9.000000,98.000000,1.000000,6.000000,0.500000,1.000000
VPzDdj72,200,0, test, 7, 1, 17, 4, 2, 4, 2, 0.65, 0.45, left, 1, 0.35, 0.45, 0.55, 0.65, 0.2897286000661552, 1, 10.000000,99.000000,1.000000,6.000000,0.500000,1.000000
VPzDdj72,200,0, test, 7, 1, 18, 2, 3, 2, 3, 0.45, 0.55, left, 1, 0.35, 0.45, 0.55, 0.65, 1.3101757001131773, 1, 11.000000,100.000000,1.000000,6.000000,0.500000,1.000000
VPzDdj72,200,0, test, 7, 1, 19, 4, 3, 4, 3, 0.65, 0.55, left, 1, 0.35, 0.45, 0.55, 0.65, 0.681350199971348, 1, 12.000000,101.000000,1.000000,6.000000,0.500000,1.000000
VPzDdj72,200,0, test, 7, 1, 20, 2, 3, 2, 3, 0.45, 0.55, left, 1, 0.35, 0.45, 0.55, 0.65, 0.662773400079459, 1, 13.000000,102.000000,1.000000,6.000000,0.500000,1.000000
VPzDdj72,200,0, test, 7, 1, 21, 2, 4, 4, 2, 0.45, 0.65, right, 2, 0.35, 0.45, 0.55, 0.65, 0.9310184000059962, 1, 14.000000,103.000000,1.000000,6.000000,0.500000,1.000000
VPzDdj72,200,0, test, 7, 1, 22, 3, 1, 1, 3, 0.55, 0.35, right, 2, 0.35, 0.45, 0.55, 0.65, 1.394423299934715, 0, 14.000000,103.000000,1.000000,6.000000,0.500000,1.000000
VPzDdj72,200,0, test, 7, 1, 23, 1, 3, 3, 1, 0.35, 0.55, right, 2, 0.35, 0.45, 0.55, 0.65, 1.0551872998476028, 1, 15.000000,104.000000,1.000000,6.000000,0.500000,1.000000
VPzDdj72,200,0, test, 7, 1, 24, 2, 3, 2, 3, 0.45, 0.55, left, 1, 0.35, 0.45, 0.55, 0.65, 0.7906988998875022, 0, 15.000000,104.000000,1.000000,6.000000,0.500000,1.000000
VPzDdj72,200,0, test, 7, 1, 25, 1, 2, 1, 2, 0.35, 0.45, left, 1, 0.35, 0.45, 0.55, 0.65, 0.7182797999121249, 1, 16.000000,105.000000,1.000000,6.000000,0.500000,1.000000
VPzDdj72,200,0, test, 8, 7, 1, 2, 4, 2, 4, 0.45, 0.65, left, 1, 0.35, 0.45, 0.55, 0.65, 0.6343658003024757, 0, 0.000000,105.000000,1.000000,6.000000,0.500000,1.000000
VPzDdj72,200,0, test, 8, 7, 2, 1, 2, 2, 1, 0.35, 0.45, right, 2, 0.35, 0.45, 0.55, 0.65, 0.4221518002450466, 0, 0.000000,105.000000,1.000000,6.000000,0.500000,1.000000
VPzDdj72,200,0, test, 8, 7, 3, 4, 1, 1, 4, 0.65, 0.35, right, 2, 0.35, 0.45, 0.55, 0.65, 0.5131671000272036, 1, 1.000000,106.000000,1.000000,6.000000,0.500000,1.000000
VPzDdj72,200,0, test, 8, 7, 4, 3, 2, 2, 3, 0.55, 0.45, right, 2, 0.35, 0.45, 0.55, 0.65, 0.5693518002517521, 1, 2.000000,107.000000,1.000000,6.000000,0.500000,1.000000
VPzDdj72,200,0, test, 8, 7, 5, 3, 4, 4, 3, 0.55, 0.65, right, 2, 0.35, 0.45, 0.55, 0.65, 1.282956199720502, 0, 2.000000,107.000000,1.000000,6.000000,0.500000,1.000000
VPzDdj72,200,0, test, 8, 7, 6, 4, 2, 4, 2, 0.65, 0.45, left, 1, 0.35, 0.45, 0.55, 0.65, 0.3405260001309216, 1, 3.000000,108.000000,1.000000,6.000000,0.500000,1.000000
VPzDdj72,200,0, test, 8, 7, 7, 4, 2, 4, 2, 0.65, 0.45, left, 1, 0.35, 0.45, 0.55, 0.65, 0.3525233999826014, 0, 3.000000,108.000000,1.000000,6.000000,0.500000,1.000000
VPzDdj72,200,0, test, 8, 7, 8, 3, 1, 3, 1, 0.55, 0.35, left, 1, 0.35, 0.45, 0.55, 0.65, 0.5517164999619126, 1, 4.000000,109.000000,1.000000,6.000000,0.500000,1.000000
VPzDdj72,200,0, test, 8, 7, 9, 2, 4, 2, 4, 0.45, 0.65, left, 1, 0.35, 0.45, 0.55, 0.65, 1.202673800289631, 1, 5.000000,110.000000,1.000000,6.000000,0.500000,1.000000
VPzDdj72,200,0, test, 8, 7, 10, 1, 4, 1, 4, 0.35, 0.65, left, 1, 0.35, 0.45, 0.55, 0.65, 0.8875051997601986, 1, 6.000000,111.000000,1.000000,6.000000,0.500000,1.000000
VPzDdj72,200,0, test, 8, 7, 11, 2, 3, 3, 2, 0.45, 0.55, right, 2, 0.35, 0.45, 0.55, 0.65, 0.9887418998405337, 0, 6.000000,111.000000,1.000000,6.000000,0.500000,1.000000
VPzDdj72,200,0, test, 8, 7, 12, 3, 4, 3, 4, 0.55, 0.65, left, 1, 0.35, 0.45, 0.55, 0.65, 0.9896366000175476, 0, 6.000000,111.000000,1.000000,6.000000,0.500000,1.000000
VPzDdj72,200,0, test, 8, 7, 13, 1, 3, 1, 3, 0.35, 0.55, left, 1, 0.35, 0.45, 0.55, 0.65, 0.3149939998984337, 1, 7.000000,112.000000,1.000000,6.000000,0.500000,1.000000
VPzDdj72,200,0, test, 8, 7, 14, 3, 2, 2, 3, 0.55, 0.45, right, 2, 0.35, 0.45, 0.55, 0.65, 2.9013465996831656, 1, 8.000000,113.000000,1.000000,6.000000,0.500000,1.000000
VPzDdj72,200,0, test, 8, 7, 15, 1, 4, 4, 1, 0.35, 0.65, right, 2, 0.35, 0.45, 0.55, 0.65, 0.7703572995960712, 1, 9.000000,114.000000,1.000000,6.000000,0.500000,1.000000
VPzDdj72,200,0, test, 8, 7, 16, 3, 4, 4, 3, 0.55, 0.65, right, 2, 0.35, 0.45, 0.55, 0.65, 1.0538331000134349, 1, 10.000000,115.000000,1.000000,6.000000,0.500000,1.000000
VPzDdj72,200,0, test, 8, 7, 17, 3, 2, 2, 3, 0.55, 0.45, right, 2, 0.35, 0.45, 0.55, 0.65, 0.5005967002362013, 0, 10.000000,115.000000,1.000000,6.000000,0.500000,1.000000
VPzDdj72,200,0, test, 8, 7, 18, 1, 2, 1, 2, 0.35, 0.45, left, 1, 0.35, 0.45, 0.55, 0.65, 1.417189999949187, 0, 10.000000,115.000000,1.000000,6.000000,0.500000,1.000000
VPzDdj72,200,0, test, 8, 7, 19, 2, 4, 4, 2, 0.45, 0.65, right, 2, 0.35, 0.45, 0.55, 0.65, 0.5733520998619497, 1, 11.000000,116.000000,1.000000,6.000000,0.500000,1.000000
VPzDdj72,200,0, test, 8, 7, 20, 2, 1, 2, 1, 0.45, 0.35, left, 1, 0.35, 0.45, 0.55, 0.65, 0.3182449000887573, 0, 11.000000,116.000000,1.000000,6.000000,0.500000,1.000000
VPzDdj72,200,0, test, 8, 7, 21, 1, 3, 1, 3, 0.35, 0.55, left, 1, 0.35, 0.45, 0.55, 0.65, 0.9301190003752708, 0, 11.000000,116.000000,1.000000,6.000000,0.500000,1.000000
VPzDdj72,200,0, test, 8, 7, 22, 3, 2, 3, 2, 0.55, 0.45, left, 1, 0.35, 0.45, 0.55, 0.65, 1.3278254996985197, 1, 12.000000,117.000000,1.000000,6.000000,0.500000,1.000000
VPzDdj72,200,0, test, 8, 7, 23, 3, 1, 3, 1, 0.55, 0.35, left, 1, 0.35, 0.45, 0.55, 0.65, 0.3744993000291288, 1, 13.000000,118.000000,1.000000,6.000000,0.500000,1.000000
VPzDdj72,200,0, test, 8, 7, 24, 4, 2, 2, 4, 0.65, 0.45, right, 2, 0.35, 0.45, 0.55, 0.65, 0.9681712002493441, 0, 13.000000,118.000000,1.000000,6.000000,0.500000,1.000000
VPzDdj72,200,0, test, 8, 7, 25, 3, 2, 2, 3, 0.55, 0.45, right, 2, 0.35, 0.45, 0.55, 0.65, 0.6445186999626458, 1, 14.000000,119.000000,1.000000,6.000000,0.500000,1.000000
