ShaharID, group, counterbalance, block_type, block, delay_condition, trial, chosen, unchosen, offer_left_image, offer_right_image, exp_value_chosen, exp_value_unchosen, choice_location, choice_key, exp_value1, exp_value2, exp_value3, exp_value4, RT, reward, coins_per_block, coins_per_task,ITI_duration,rt_deadline,choice_feedback_duration,outcome_duration
SfYVARDj,100,1, practice, 1, 1, 1, 2, 3, 3, 2, 0.45, 0.55, right, 2, 0.35, 0.45, 0.55, 0.65, 1.2919163000187837, 0, 0.000000,0.000000,1.000000,6.000000,0.500000,1.000000
SfYVARDj,100,1, practice, 1, 1, 2, 2, 3, 2, 3, 0.45, 0.55, left, 1, 0.35, 0.45, 0.55, 0.65, 0.8539207000285387, 0, 0.000000,0.000000,1.000000,6.000000,0.500000,1.000000
SfYVARDj,100,1, practice, 1, 1, 3, 4, 1, 4, 1, 0.65, 0.35, left, 1, 0.35, 0.45, 0.55, 0.65, 0.866851200000383, 1, 1.000000,1.000000,1.000000,6.000000,0.500000,1.000000
SfYVARDj,100,1, practice, 1, 1, 4, 1, 2, 2, 1, 0.35, 0.45, right, 2, 0.35, 0.45, 0.55, 0.65, 1.1646848999662325, 0, 1.000000,1.000000,1.000000,6.000000,0.500000,1.000000
SfYVARDj,100,1, practice, 1, 1, 5, 2, 4, 2, 4, 0.45, 0.65, left, 1, 0.35, 0.45, 0.55, 0.65, 0.877941099985037, 0, 1.000000,1.000000,1.000000,6.000000,0.500000,1.000000
SfYVARDj,100,1, test, 1, 7, 1, 1, 4, 1, 4, 0.35, 0.65, left, 1, 0.35, 0.45, 0.55, 0.65, 1.4798074000282213, 0, 0.000000,1.000000,1.000000,6.000000,0.500000,1.000000
SfYVARDj,100,1, test, 1, 7, 2, 2, 3, 3, 2, 0.45, 0.55, right, 2, 0.35, 0.45, 0.55, 0.65, 0.5554150000098161, 1, 1.000000,2.000000,1.000000,6.000000,0.500000,1.000000
SfYVARDj,100,1, test, 1, 7, 3, 2, 3, 3, 2, 0.45, 0.55, right, 2, 0.35, 0.45, 0.55, 0.65, 1.3751553999609314, 1, 2.000000,3.000000,1.000000,6.000000,0.500000,1.000000
SfYVARDj,100,1, test, 1, 7, 4, 4, 3, 4, 3, 0.65, 0.55, left, 1, 0.35, 0.45, 0.55, 0.65, 2.5713458000100218, 1, 3.000000,4.000000,1.000000,6.000000,0.500000,1.000000
SfYVARDj,100,1, test, 1, 7, 5, 1, 3, 3, 1, 0.35, 0.55, right, 2, 0.35, 0.45, 0.55, 0.65, 9.379995753988624e-05, 1, 4.000000,5.000000,1.000000,6.000000,0.500000,1.000000
SfYVARDj,100,1, test, 1, 7, 6, 4, 3, 3, 4, 0.65, 0.55, right, 2, 0.35, 0.45, 0.55, 0.65, 1.5522984000272118, 0, 4.000000,5.000000,1.000000,6.000000,0.500000,1.000000
SfYVARDj,100,1, test, 1, 7, 7, 4, 1, 4, 1, 0.65, 0.35, left, 1, 0.35, 0.45, 0.55, 0.65, 1.0302793000009842, 1, 5.000000,6.000000,1.000000,6.000000,0.500000,1.000000
SfYVARDj,100,1, test, 1, 7, 8, 2, 1, 1, 2, 0.45, 0.35, right, 2, 0.35, 0.45, 0.55, 0.65, 1.1296242999960668, 0, 5.000000,6.000000,1.000000,6.000000,0.500000,1.000000
SfYVARDj,100,1, test, 1, 7, 9, 2, 1, 1, 2, 0.45, 0.35, right, 2, 0.35, 0.45, 0.55, 0.65, 0.956142799986992, 0, 5.000000,6.000000,1.000000,6.000000,0.500000,1.000000
SfYVARDj,100,1, test, 1, 7, 10, 1, 3, 1, 3, 0.35, 0.55, left, 1, 0.35, 0.45, 0.55, 0.65, 0.8468532999977469, 0, 5.000000,6.000000,1.000000,6.000000,0.500000,1.000000
SfYVARDj,100,1, test, 1, 7, 11, 2, 4, 4, 2, 0.45, 0.65, right, 2, 0.35, 0.45, 0.55, 0.65, 0.7714677000185475, 0, 5.000000,6.000000,1.000000,6.000000,0.500000,1.000000
SfYVARDj,100,1, test, 1, 7, 12, 2, 3, 2, 3, 0.45, 0.55, left, 1, 0.35, 0.45, 0.55, 0.65, 0.6534173999680206, 1, 6.000000,7.000000,1.000000,6.000000,0.500000,1.000000
SfYVARDj,100,1, test, 1, 7, 13, 4, 3, 3, 4, 0.65, 0.55, right, 2, 0.35, 0.45, 0.55, 0.65, 1.4479110999964178, 1, 7.000000,8.000000,1.000000,6.000000,0.500000,1.000000
SfYVARDj,100,1, test, 1, 7, 14, 2, 1, 2, 1, 0.45, 0.35, left, 1, 0.35, 0.45, 0.55, 0.65, 0.6786612999858335, 0, 7.000000,8.000000,1.000000,6.000000,0.500000,1.000000
SfYVARDj,100,1, test, 1, 7, 15, 2, 1, 1, 2, 0.45, 0.35, right, 2, 0.35, 0.45, 0.55, 0.65, 0.8245674999780022, 0, 7.000000,8.000000,1.000000,6.000000,0.500000,1.000000
SfYVARDj,100,1, test, 1, 7, 16, 3, 2, 3, 2, 0.55, 0.45, left, 1, 0.35, 0.45, 0.55, 0.65, 0.6886701000039466, 0, 7.000000,8.000000,1.000000,6.000000,0.500000,1.000000
SfYVARDj,100,1, test, 1, 7, 17, 2, 3, 3, 2, 0.45, 0.55, right, 2, 0.35, 0.45, 0.55, 0.65, 1.3846043999656104, 0, 7.000000,8.000000,1.000000,6.000000,0.500000,1.000000
SfYVARDj,100,1, test, 1, 7, 18, 1, 3, 1, 3, 0.35, 0.55, left, 1, 0.35, 0.45, 0.55, 0.65, 0.9289225999964401, 1, 8.000000,9.000000,1.000000,6.000000,0.500000,1.000000
SfYVARDj,100,1, test, 1, 7, 19, 3, 4, 4, 3, 0.55, 0.65, right, 2, 0.35, 0.45, 0.55, 0.65, 1.3312860999722034, 1, 9.000000,10.000000,1.000000,6.000000,0.500000,1.000000
SfYVARDj,100,1, test, 1, 7, 20, 1, 4, 4, 1, 0.35, 0.65, right, 2, 0.35, 0.45, 0.55, 0.65, 1.3983884999761358, 0, 9.000000,10.000000,1.000000,6.000000,0.500000,1.000000
SfYVARDj,100,1, test, 1, 7, 21, 4, 1, 4, 1, 0.65, 0.35, left, 1, 0.35, 0.45, 0.55, 0.65, 1.3872113000252284, 1, 10.000000,11.000000,1.000000,6.000000,0.500000,1.000000
SfYVARDj,100,1, test, 1, 7, 22, 2, 1, 2, 1, 0.45, 0.35, left, 1, 0.35, 0.45, 0.55, 0.65, 1.2685097999637946, 1, 11.000000,12.000000,1.000000,6.000000,0.500000,1.000000
SfYVARDj,100,1, test, 1, 7, 23, 4, 1, 1, 4, 0.65, 0.35, right, 2, 0.35, 0.45, 0.55, 0.65, 0.686402800027281, 0, 11.000000,12.000000,1.000000,6.000000,0.500000,1.000000
SfYVARDj,100,1, test, 1, 7, 24, 2, 3, 3, 2, 0.45, 0.55, right, 2, 0.35, 0.45, 0.55, 0.65, 0.8156992999720387, 1, 12.000000,13.000000,1.000000,6.000000,0.500000,1.000000
SfYVARDj,100,1, test, 1, 7, 25, 3, 1, 3, 1, 0.55, 0.35, left, 1, 0.35, 0.45, 0.55, 0.65, 1.6268354000058025, 0, 12.000000,13.000000,1.000000,6.000000,0.500000,1.000000
SfYVARDj,100,1, test, 2, 1, 1, 4, 2, 2, 4, 0.65, 0.45, right, 2, 0.35, 0.45, 0.55, 0.65, 0.8721934000495821, 1, 1.000000,14.000000,1.000000,6.000000,0.500000,1.000000
SfYVARDj,100,1, test, 2, 1, 2, 4, 2, 2, 4, 0.65, 0.45, right, 2, 0.35, 0.45, 0.55, 0.65, 1.354259500047192, 1, 2.000000,15.000000,1.000000,6.000000,0.500000,1.000000
SfYVARDj,100,1, test, 2, 1, 3, 4, 1, 1, 4, 0.65, 0.35, right, 2, 0.35, 0.45, 0.55, 0.65, 2.504950800037477, 1, 3.000000,16.000000,1.000000,6.000000,0.500000,1.000000
SfYVARDj,100,1, test, 2, 1, 4, 3, 1, 3, 1, 0.55, 0.35, left, 1, 0.35, 0.45, 0.55, 0.65, 1.5329668999766, 0, 3.000000,16.000000,1.000000,6.000000,0.500000,1.000000
SfYVARDj,100,1, test, 2, 1, 5, 2, 1, 1, 2, 0.45, 0.35, right, 2, 0.35, 0.45, 0.55, 0.65, 0.6400712999748066, 1, 4.000000,17.000000,1.000000,6.000000,0.500000,1.000000
SfYVARDj,100,1, test, 2, 1, 6, 4, 3, 4, 3, 0.65, 0.55, left, 1, 0.35, 0.45, 0.55, 0.65, 0.911503300012555, 1, 5.000000,18.000000,1.000000,6.000000,0.500000,1.000000
SfYVARDj,100,1, test, 2, 1, 7, 1, 3, 3, 1, 0.35, 0.55, right, 2, 0.35, 0.45, 0.55, 0.65, 1.6041507999761961, 0, 5.000000,18.000000,1.000000,6.000000,0.500000,1.000000
SfYVARDj,100,1, test, 2, 1, 8, 4, 2, 2, 4, 0.65, 0.45, right, 2, 0.35, 0.45, 0.55, 0.65, 0.8526651000138372, 1, 6.000000,19.000000,1.000000,6.000000,0.500000,1.000000
SfYVARDj,100,1, test, 2, 1, 9, 3, 2, 2, 3, 0.55, 0.45, right, 2, 0.35, 0.45, 0.55, 0.65, 1.4193354999879375, 1, 7.000000,20.000000,1.000000,6.000000,0.500000,1.000000
SfYVARDj,100,1, test, 2, 1, 10, 4, 3, 3, 4, 0.65, 0.55, right, 2, 0.35, 0.45, 0.55, 0.65, 1.2675174999749288, 0, 7.000000,20.000000,1.000000,6.000000,0.500000,1.000000
SfYVARDj,100,1, test, 2, 1, 11, 4, 1, 4, 1, 0.65, 0.35, left, 1, 0.35, 0.45, 0.55, 0.65, 0.7574558000196703, 0, 7.000000,20.000000,1.000000,6.000000,0.500000,1.000000
SfYVARDj,100,1, test, 2, 1, 12, 2, 3, 3, 2, 0.45, 0.55, right, 2, 0.35, 0.45, 0.55, 0.65, 0.6075071000377648, 1, 8.000000,21.000000,1.000000,6.000000,0.500000,1.000000
SfYVARDj,100,1, test, 2, 1, 13, 4, 3, 3, 4, 0.65, 0.55, right, 2, 0.35, 0.45, 0.55, 0.65, 1.0281055999803357, 1, 9.000000,22.000000,1.000000,6.000000,0.500000,1.000000
SfYVARDj,100,1, test, 2, 1, 14, 4, 3, 3, 4, 0.65, 0.55, right, 2, 0.35, 0.45, 0.55, 0.65, 0.4439243999659084, 1, 10.000000,23.000000,1.000000,6.000000,0.500000,1.000000
SfYVARDj,100,1, test, 2, 1, 15, 4, 2, 4, 2, 0.65, 0.45, left, 1, 0.35, 0.45, 0.55, 0.65, 1.195431100029964, 0, 10.000000,23.000000,1.000000,6.000000,0.500000,1.000000
SfYVARDj,100,1, test, 2, 1, 16, 2, 3, 3, 2, 0.45, 0.55, right, 2, 0.35, 0.45, 0.55, 0.65, 0.9326827999902889, 0, 10.000000,23.000000,1.000000,6.000000,0.500000,1.000000
SfYVARDj,100,1, test, 2, 1, 17, 3, 1, 3, 1, 0.55, 0.35, left, 1, 0.35, 0.45, 0.55, 0.65, 0.635992499999702, 0, 10.000000,23.000000,1.000000,6.000000,0.500000,1.000000
SfYVARDj,100,1, test, 2, 1, 18, 2, 3, 3, 2, 0.45, 0.55, right, 2, 0.35, 0.45, 0.55, 0.65, 1.2706966999685392, 0, 10.000000,23.000000,1.000000,6.000000,0.500000,1.000000
SfYVARDj,100,1, test, 2, 1, 19, 4, 1, 1, 4, 0.65, 0.35, right, 2, 0.35, 0.45, 0.55, 0.65, 0.8807768999831751, 1, 11.000000,24.000000,1.000000,6.000000,0.500000,1.000000
SfYVARDj,100,1, test, 2, 1, 20, 4, 2, 4, 2, 0.65, 0.45, left, 1, 0.35, 0.45, 0.55, 0.65, 1.0459268999984488, 1, 12.000000,25.000000,1.000000,6.000000,0.500000,1.000000
SfYVARDj,100,1, test, 2, 1, 21, 4, 3, 4, 3, 0.65, 0.55, left, 1, 0.35, 0.45, 0.55, 0.65, 1.4013537000282668, 1, 13.000000,26.000000,1.000000,6.000000,0.500000,1.000000
SfYVARDj,100,1, test, 2, 1, 22, 1, 2, 1, 2, 0.35, 0.45, left, 1, 0.35, 0.45, 0.55, 0.65, 1.2541633000364527, 0, 13.000000,26.000000,1.000000,6.000000,0.500000,1.000000
SfYVARDj,100,1, test, 2, 1, 23, 1, 3, 3, 1, 0.35, 0.55, right, 2, 0.35, 0.45, 0.55, 0.65, 0.8725602999911644, 1, 14.000000,27.000000,1.000000,6.000000,0.500000,1.000000
SfYVARDj,100,1, test, 2, 1, 24, 2, 1, 1, 2, 0.45, 0.35, right, 2, 0.35, 0.45, 0.55, 0.65, 0.590703800029587, 1, 15.000000,28.000000,1.000000,6.000000,0.500000,1.000000
SfYVARDj,100,1, test, 2, 1, 25, 2, 4, 4, 2, 0.45, 0.65, right, 2, 0.35, 0.45, 0.55, 0.65, 1.175227299972903, 1, 16.000000,29.000000,1.000000,6.000000,0.500000,1.000000
SfYVARDj,100,1, test, 3, 7, 1, 2, 1, 2, 1, 0.45, 0.35, left, 1, 0.35, 0.45, 0.55, 0.65, 1.3638836999889463, 0, 0.000000,29.000000,1.000000,6.000000,0.500000,1.000000
SfYVARDj,100,1, test, 3, 7, 2, 1, 4, 4, 1, 0.35, 0.65, right, 2, 0.35, 0.45, 0.55, 0.65, 0.4740229999879375, 1, 1.000000,30.000000,1.000000,6.000000,0.500000,1.000000
SfYVARDj,100,1, test, 3, 7, 3, 3, 1, 1, 3, 0.55, 0.35, right, 2, 0.35, 0.45, 0.55, 0.65, 0.7160859999712557, 1, 2.000000,31.000000,1.000000,6.000000,0.500000,1.000000
SfYVARDj,100,1, test, 3, 7, 4, 1, 3, 3, 1, 0.35, 0.55, right, 2, 0.35, 0.45, 0.55, 0.65, 0.6645460000145249, 1, 3.000000,32.000000,1.000000,6.000000,0.500000,1.000000
SfYVARDj,100,1, test, 3, 7, 5, 2, 3, 2, 3, 0.45, 0.55, left, 1, 0.35, 0.45, 0.55, 0.65, 0.6924172000144608, 1, 4.000000,33.000000,1.000000,6.000000,0.500000,1.000000
SfYVARDj,100,1, test, 3, 7, 6, 4, 3, 3, 4, 0.65, 0.55, right, 2, 0.35, 0.45, 0.55, 0.65, 0.676524700014852, 1, 5.000000,34.000000,1.000000,6.000000,0.500000,1.000000
SfYVARDj,100,1, test, 3, 7, 7, 3, 1, 3, 1, 0.55, 0.35, left, 1, 0.35, 0.45, 0.55, 0.65, 0.6344864999991842, 1, 6.000000,35.000000,1.000000,6.000000,0.500000,1.000000
SfYVARDj,100,1, test, 3, 7, 8, 2, 4, 4, 2, 0.45, 0.65, right, 2, 0.35, 0.45, 0.55, 0.65, 0.7338482000050135, 0, 6.000000,35.000000,1.000000,6.000000,0.500000,1.000000
SfYVARDj,100,1, test, 3, 7, 9, 2, 3, 2, 3, 0.45, 0.55, left, 1, 0.35, 0.45, 0.55, 0.65, 0.48114649998024106, 0, 6.000000,35.000000,1.000000,6.000000,0.500000,1.000000
SfYVARDj,100,1, test, 3, 7, 10, 1, 3, 3, 1, 0.35, 0.55, right, 2, 0.35, 0.45, 0.55, 0.65, 0.49022530001820996, 0, 6.000000,35.000000,1.000000,6.000000,0.500000,1.000000
SfYVARDj,100,1, test, 3, 7, 11, 2, 1, 1, 2, 0.45, 0.35, right, 2, 0.35, 0.45, 0.55, 0.65, 0.7635861999588087, 0, 6.000000,35.000000,1.000000,6.000000,0.500000,1.000000
SfYVARDj,100,1, test, 3, 7, 12, 4, 2, 4, 2, 0.65, 0.45, left, 1, 0.35, 0.45, 0.55, 0.65, 0.41356429998995736, 1, 7.000000,36.000000,1.000000,6.000000,0.500000,1.000000
SfYVARDj,100,1, test, 3, 7, 13, 4, 3, 3, 4, 0.65, 0.55, right, 2, 0.35, 0.45, 0.55, 0.65, 0.6534942000289448, 0, 7.000000,36.000000,1.000000,6.000000,0.500000,1.000000
SfYVARDj,100,1, test, 3, 7, 14, 1, 4, 1, 4, 0.35, 0.65, left, 1, 0.35, 0.45, 0.55, 0.65, 0.8042821999988519, 1, 8.000000,37.000000,1.000000,6.000000,0.500000,1.000000
SfYVARDj,100,1, test, 3, 7, 15, 2, 1, 1, 2, 0.45, 0.35, right, 2, 0.35, 0.45, 0.55, 0.65, 0.9246839999686927, 1, 9.000000,38.000000,1.000000,6.000000,0.500000,1.000000
SfYVARDj,100,1, test, 3, 7, 16, 4, 3, 4, 3, 0.65, 0.55, left, 1, 0.35, 0.45, 0.55, 0.65, 0.9207336999825202, 1, 10.000000,39.000000,1.000000,6.000000,0.500000,1.000000
SfYVARDj,100,1, test, 3, 7, 17, 1, 3, 3, 1, 0.35, 0.55, right, 2, 0.35, 0.45, 0.55, 0.65, 1.2246351999929175, 0, 10.000000,39.000000,1.000000,6.000000,0.500000,1.000000
SfYVARDj,100,1, test, 3, 7, 18, 1, 2, 1, 2, 0.35, 0.45, left, 1, 0.35, 0.45, 0.55, 0.65, 0.30060640000738204, 0, 10.000000,39.000000,1.000000,6.000000,0.500000,1.000000
SfYVARDj,100,1, test, 3, 7, 19, 4, 2, 2, 4, 0.65, 0.45, right, 2, 0.35, 0.45, 0.55, 0.65, 0.4494340000092052, 1, 11.000000,40.000000,1.000000,6.000000,0.500000,1.000000
SfYVARDj,100,1, test, 3, 7, 20, 2, 3, 3, 2, 0.45, 0.55, right, 2, 0.35, 0.45, 0.55, 0.65, 0.43187199998646975, 1, 12.000000,41.000000,1.000000,6.000000,0.500000,1.000000
SfYVARDj,100,1, test, 3, 7, 21, 4, 1, 4, 1, 0.65, 0.35, left, 1, 0.35, 0.45, 0.55, 0.65, 0.6232796999975108, 1, 13.000000,42.000000,1.000000,6.000000,0.500000,1.000000
SfYVARDj,100,1, test, 3, 7, 22, 3, 4, 4, 3, 0.55, 0.65, right, 2, 0.35, 0.45, 0.55, 0.65, 0.5593143000151031, 0, 13.000000,42.000000,1.000000,6.000000,0.500000,1.000000
SfYVARDj,100,1, test, 3, 7, 23, 3, 2, 3, 2, 0.55, 0.45, left, 1, 0.35, 0.45, 0.55, 0.65, 0.7537575000314973, 0, 13.000000,42.000000,1.000000,6.000000,0.500000,1.000000
SfYVARDj,100,1, test, 3, 7, 24, 1, 3, 3, 1, 0.35, 0.55, right, 2, 0.35, 0.45, 0.55, 0.65, 0.5284799999790266, 1, 14.000000,43.000000,1.000000,6.000000,0.500000,1.000000
SfYVARDj,100,1, test, 3, 7, 25, 3, 2, 3, 2, 0.55, 0.45, left, 1, 0.35, 0.45, 0.55, 0.65, 0.6044616000144742, 1, 15.000000,44.000000,1.000000,6.000000,0.500000,1.000000
SfYVARDj,100,1, test, 4, 1, 1, 1, 2, 2, 1, 0.35, 0.45, right, 2, 0.35, 0.45, 0.55, 0.65, 1.0777641999884509, 0, 0.000000,44.000000,1.000000,6.000000,0.500000,1.000000
SfYVARDj,100,1, test, 4, 1, 2, 1, 4, 4, 1, 0.35, 0.65, right, 2, 0.35, 0.45, 0.55, 0.65, 0.7958806999959052, 0, 0.000000,44.000000,1.000000,6.000000,0.500000,1.000000
SfYVARDj,100,1, test, 4, 1, 3, 3, 1, 3, 1, 0.55, 0.35, left, 1, 0.35, 0.45, 0.55, 0.65, 0.45300370000768453, 1, 1.000000,45.000000,1.000000,6.000000,0.500000,1.000000
SfYVARDj,100,1, test, 4, 1, 4, 1, 4, 1, 4, 0.35, 0.65, left, 1, 0.35, 0.45, 0.55, 0.65, 0.6636777000385337, 1, 2.000000,46.000000,1.000000,6.000000,0.500000,1.000000
SfYVARDj,100,1, test, 4, 1, 5, 1, 3, 1, 3, 0.35, 0.55, left, 1, 0.35, 0.45, 0.55, 0.65, 1.0577917000046, 1, 3.000000,47.000000,1.000000,6.000000,0.500000,1.000000
SfYVARDj,100,1, test, 4, 1, 6, 1, 4, 4, 1, 0.35, 0.65, right, 2, 0.35, 0.45, 0.55, 0.65, 0.5083114000153728, 0, 3.000000,47.000000,1.000000,6.000000,0.500000,1.000000
SfYVARDj,100,1, test, 4, 1, 7, 1, 4, 1, 4, 0.35, 0.65, left, 1, 0.35, 0.45, 0.55, 0.65, 0.26900540001224726, 0, 3.000000,47.000000,1.000000,6.000000,0.500000,1.000000
SfYVARDj,100,1, test, 4, 1, 8, 2, 4, 4, 2, 0.45, 0.65, right, 2, 0.35, 0.45, 0.55, 0.65, 0.25109519995748997, 0, 3.000000,47.000000,1.000000,6.000000,0.500000,1.000000
SfYVARDj,100,1, test, 4, 1, 9, 4, 2, 4, 2, 0.65, 0.45, left, 1, 0.35, 0.45, 0.55, 0.65, 1.0895859000156634, 1, 4.000000,48.000000,1.000000,6.000000,0.500000,1.000000
SfYVARDj,100,1, test, 4, 1, 10, 2, 1, 1, 2, 0.45, 0.35, right, 2, 0.35, 0.45, 0.55, 0.65, 0.5135918000014499, 0, 4.000000,48.000000,1.000000,6.000000,0.500000,1.000000
SfYVARDj,100,1, test, 4, 1, 11, 3, 1, 3, 1, 0.55, 0.35, left, 1, 0.35, 0.45, 0.55, 0.65, 0.4336213999777101, 1, 5.000000,49.000000,1.000000,6.000000,0.500000,1.000000
SfYVARDj,100,1, test, 4, 1, 12, 3, 1, 1, 3, 0.55, 0.35, right, 2, 0.35, 0.45, 0.55, 0.65, 0.8609860999858938, 1, 6.000000,50.000000,1.000000,6.000000,0.500000,1.000000
SfYVARDj,100,1, test, 4, 1, 13, 2, 3, 3, 2, 0.45, 0.55, right, 2, 0.35, 0.45, 0.55, 0.65, 0.2755064999801107, 1, 7.000000,51.000000,1.000000,6.000000,0.500000,1.000000
SfYVARDj,100,1, test, 4, 1, 14, 3, 1, 3, 1, 0.55, 0.35, left, 1, 0.35, 0.45, 0.55, 0.65, 0.26844569999957457, 0, 7.000000,51.000000,1.000000,6.000000,0.500000,1.000000
SfYVARDj,100,1, test, 4, 1, 15, 2, 4, 4, 2, 0.45, 0.65, right, 2, 0.35, 0.45, 0.55, 0.65, 0.21421940001891926, 0, 7.000000,51.000000,1.000000,6.000000,0.500000,1.000000
SfYVARDj,100,1, test, 4, 1, 16, 2, 1, 2, 1, 0.45, 0.35, left, 1, 0.35, 0.45, 0.55, 0.65, 0.2861625000368804, 0, 7.000000,51.000000,1.000000,6.000000,0.500000,1.000000
SfYVARDj,100,1, test, 4, 1, 17, 1, 4, 4, 1, 0.35, 0.65, right, 2, 0.35, 0.45, 0.55, 0.65, 0.2114515000139363, 1, 8.000000,52.000000,1.000000,6.000000,0.500000,1.000000
SfYVARDj,100,1, test, 4, 1, 18, 4, 3, 3, 4, 0.65, 0.55, right, 2, 0.35, 0.45, 0.55, 0.65, 0.8274099000263959, 1, 9.000000,53.000000,1.000000,6.000000,0.500000,1.000000
SfYVARDj,100,1, test, 4, 1, 19, 2, 1, 1, 2, 0.45, 0.35, right, 2, 0.35, 0.45, 0.55, 0.65, 0.6754510999890044, 0, 9.000000,53.000000,1.000000,6.000000,0.500000,1.000000
SfYVARDj,100,1, test, 4, 1, 20, 3, 4, 4, 3, 0.55, 0.65, right, 2, 0.35, 0.45, 0.55, 0.65, 0.15342869999585673, 0, 9.000000,53.000000,1.000000,6.000000,0.500000,1.000000
SfYVARDj,100,1, test, 4, 1, 21, 4, 2, 4, 2, 0.65, 0.45, left, 1, 0.35, 0.45, 0.55, 0.65, 0.26818670000648126, 0, 9.000000,53.000000,1.000000,6.000000,0.500000,1.000000
SfYVARDj,100,1, test, 4, 1, 22, 1, 4, 4, 1, 0.35, 0.65, right, 2, 0.35, 0.45, 0.55, 0.65, 0.2820236000115983, 1, 10.000000,54.000000,1.000000,6.000000,0.500000,1.000000
SfYVARDj,100,1, test, 4, 1, 23, 4, 3, 3, 4, 0.65, 0.55, right, 2, 0.35, 0.45, 0.55, 0.65, 0.18338579998817295, 1, 11.000000,55.000000,1.000000,6.000000,0.500000,1.000000
SfYVARDj,100,1, test, 4, 1, 24, 1, 2, 1, 2, 0.35, 0.45, left, 1, 0.35, 0.45, 0.55, 0.65, 0.26887420000275597, 1, 12.000000,56.000000,1.000000,6.000000,0.500000,1.000000
SfYVARDj,100,1, test, 4, 1, 25, 2, 3, 3, 2, 0.45, 0.55, right, 2, 0.35, 0.45, 0.55, 0.65, 0.5020935999928042, 1, 13.000000,57.000000,1.000000,6.000000,0.500000,1.000000
SfYVARDj,100,1, test, 5, 7, 1, 2, 4, 4, 2, 0.45, 0.65, right, 2, 0.35, 0.45, 0.55, 0.65, 1.0293628000072204, 1, 1.000000,58.000000,1.000000,6.000000,0.500000,1.000000
SfYVARDj,100,1, test, 5, 7, 2, 2, 3, 2, 3, 0.45, 0.55, left, 1, 0.35, 0.45, 0.55, 0.65, 0.7134583999868482, 0, 1.000000,58.000000,1.000000,6.000000,0.500000,1.000000
SfYVARDj,100,1, test, 5, 7, 3, 4, 2, 2, 4, 0.65, 0.45, right, 2, 0.35, 0.45, 0.55, 0.65, 0.32528800005093217, 1, 2.000000,59.000000,1.000000,6.000000,0.500000,1.000000
SfYVARDj,100,1, test, 5, 7, 4, 4, 3, 4, 3, 0.65, 0.55, left, 1, 0.35, 0.45, 0.55, 0.65, 0.4054753999807872, 1, 3.000000,60.000000,1.000000,6.000000,0.500000,1.000000
SfYVARDj,100,1, test, 5, 7, 5, 1, 3, 1, 3, 0.35, 0.55, left, 1, 0.35, 0.45, 0.55, 0.65, 1.2260770999710076, 0, 3.000000,60.000000,1.000000,6.000000,0.500000,1.000000
SfYVARDj,100,1, test, 5, 7, 6, 2, 1, 2, 1, 0.45, 0.35, left, 1, 0.35, 0.45, 0.55, 0.65, 0.19781699997838587, 0, 3.000000,60.000000,1.000000,6.000000,0.500000,1.000000
SfYVARDj,100,1, test, 5, 7, 7, 2, 3, 3, 2, 0.45, 0.55, right, 2, 0.35, 0.45, 0.55, 0.65, 0.20244399999501184, 0, 3.000000,60.000000,1.000000,6.000000,0.500000,1.000000
SfYVARDj,100,1, test, 5, 7, 8, 2, 4, 4, 2, 0.45, 0.65, right, 2, 0.35, 0.45, 0.55, 0.65, 0.1912247000145726, 0, 3.000000,60.000000,1.000000,6.000000,0.500000,1.000000
SfYVARDj,100,1, test, 5, 7, 9, 4, 1, 4, 1, 0.65, 0.35, left, 1, 0.35, 0.45, 0.55, 0.65, 0.23237270000390708, 1, 4.000000,61.000000,1.000000,6.000000,0.500000,1.000000
SfYVARDj,100,1, test, 5, 7, 10, 4, 2, 2, 4, 0.65, 0.45, right, 2, 0.35, 0.45, 0.55, 0.65, 0.5477956999675371, 1, 5.000000,62.000000,1.000000,6.000000,0.500000,1.000000
SfYVARDj,100,1, test, 5, 7, 11, 3, 2, 3, 2, 0.55, 0.45, left, 1, 0.35, 0.45, 0.55, 0.65, 1.2623425999772735, 1, 6.000000,63.000000,1.000000,6.000000,0.500000,1.000000
SfYVARDj,100,1, test, 5, 7, 12, 1, 2, 2, 1, 0.35, 0.45, right, 2, 0.35, 0.45, 0.55, 0.65, 0.5130919000366703, 0, 6.000000,63.000000,1.000000,6.000000,0.500000,1.000000
SfYVARDj,100,1, test, 5, 7, 13, 1, 3, 1, 3, 0.35, 0.55, left, 1, 0.35, 0.45, 0.55, 0.65, 0.5209347000345588, 0, 6.000000,63.000000,1.000000,6.000000,0.500000,1.000000
SfYVARDj,100,1, test, 5, 7, 14, 4, 2, 2, 4, 0.65, 0.45, right, 2, 0.35, 0.45, 0.55, 0.65, 0.3571609999635257, 0, 6.000000,63.000000,1.000000,6.000000,0.500000,1.000000
SfYVARDj,100,1, test, 5, 7, 15, 1, 2, 2, 1, 0.35, 0.45, right, 2, 0.35, 0.45, 0.55, 0.65, 0.49950299999909475, 0, 6.000000,63.000000,1.000000,6.000000,0.500000,1.000000
SfYVARDj,100,1, test, 5, 7, 16, 1, 2, 1, 2, 0.35, 0.45, left, 1, 0.35, 0.45, 0.55, 0.65, 0.572363100014627, 1, 7.000000,64.000000,1.000000,6.000000,0.500000,1.000000
SfYVARDj,100,1, test, 5, 7, 17, 4, 2, 2, 4, 0.65, 0.45, right, 2, 0.35, 0.45, 0.55, 0.65, 0.00010929995914921165, 1, 8.000000,65.000000,1.000000,6.000000,0.500000,1.000000
SfYVARDj,100,1, test, 5, 7, 18, 4, 3, 4, 3, 0.65, 0.55, left, 1, 0.35, 0.45, 0.55, 0.65, 0.9027925000409596, 0, 8.000000,65.000000,1.000000,6.000000,0.500000,1.000000
SfYVARDj,100,1, test, 5, 7, 19, 1, 2, 1, 2, 0.35, 0.45, left, 1, 0.35, 0.45, 0.55, 0.65, 1.1988447000039741, 0, 8.000000,65.000000,1.000000,6.000000,0.500000,1.000000
SfYVARDj,100,1, test, 5, 7, 20, 2, 3, 3, 2, 0.45, 0.55, right, 2, 0.35, 0.45, 0.55, 0.65, 0.6836409000097774, 1, 9.000000,66.000000,1.000000,6.000000,0.500000,1.000000
SfYVARDj,100,1, test, 5, 7, 21, 4, 2, 2, 4, 0.65, 0.45, right, 2, 0.35, 0.45, 0.55, 0.65, 0.6195567999966443, 1, 10.000000,67.000000,1.000000,6.000000,0.500000,1.000000
SfYVARDj,100,1, test, 5, 7, 22, 2, 4, 2, 4, 0.45, 0.65, left, 1, 0.35, 0.45, 0.55, 0.65, 0.9175329999998212, 1, 11.000000,68.000000,1.000000,6.000000,0.500000,1.000000
SfYVARDj,100,1, test, 5, 7, 23, 3, 4, 4, 3, 0.55, 0.65, right, 2, 0.35, 0.45, 0.55, 0.65, 0.30954049999127164, 0, 11.000000,68.000000,1.000000,6.000000,0.500000,1.000000
SfYVARDj,100,1, test, 5, 7, 24, 4, 2, 4, 2, 0.65, 0.45, left, 1, 0.35, 0.45, 0.55, 0.65, 0.7740662000142038, 1, 12.000000,69.000000,1.000000,6.000000,0.500000,1.000000
SfYVARDj,100,1, test, 5, 7, 25, 2, 4, 4, 2, 0.45, 0.65, right, 2, 0.35, 0.45, 0.55, 0.65, 0.5719546999898739, 1, 13.000000,70.000000,1.000000,6.000000,0.500000,1.000000
SfYVARDj,100,1, test, 6, 1, 1, 2, 1, 1, 2, 0.45, 0.35, right, 2, 0.35, 0.45, 0.55, 0.65, 1.2301161999930628, 1, 1.000000,71.000000,1.000000,6.000000,0.500000,1.000000
SfYVARDj,100,1, test, 6, 1, 2, 2, 4, 2, 4, 0.45, 0.65, left, 1, 0.35, 0.45, 0.55, 0.65, 0.576700699981302, 0, 1.000000,71.000000,1.000000,6.000000,0.500000,1.000000
SfYVARDj,100,1, test, 6, 1, 3, 2, 4, 4, 2, 0.45, 0.65, right, 2, 0.35, 0.45, 0.55, 0.65, 0.32666910003172234, 0, 1.000000,71.000000,1.000000,6.000000,0.500000,1.000000
SfYVARDj,100,1, test, 6, 1, 4, 4, 2, 4, 2, 0.65, 0.45, left, 1, 0.35, 0.45, 0.55, 0.65, 0.44592039997223765, 0, 1.000000,71.000000,1.000000,6.000000,0.500000,1.000000
SfYVARDj,100,1, test, 6, 1, 5, 1, 2, 2, 1, 0.35, 0.45, right, 2, 0.35, 0.45, 0.55, 0.65, 0.47175379999680445, 1, 2.000000,72.000000,1.000000,6.000000,0.500000,1.000000
SfYVARDj,100,1, test, 6, 1, 6, 3, 4, 3, 4, 0.55, 0.65, left, 1, 0.35, 0.45, 0.55, 0.65, 0.39315740001620725, 1, 3.000000,73.000000,1.000000,6.000000,0.500000,1.000000
SfYVARDj,100,1, test, 6, 1, 7, 3, 2, 2, 3, 0.55, 0.45, right, 2, 0.35, 0.45, 0.55, 0.65, 0.3777342999819666, 0, 3.000000,73.000000,1.000000,6.000000,0.500000,1.000000
SfYVARDj,100,1, test, 6, 1, 8, 2, 4, 2, 4, 0.45, 0.65, left, 1, 0.35, 0.45, 0.55, 0.65, 0.5072934000054374, 0, 3.000000,73.000000,1.000000,6.000000,0.500000,1.000000
SfYVARDj,100,1, test, 6, 1, 9, 3, 4, 4, 3, 0.55, 0.65, right, 2, 0.35, 0.45, 0.55, 0.65, 0.20304699998814613, 0, 3.000000,73.000000,1.000000,6.000000,0.500000,1.000000
SfYVARDj,100,1, test, 6, 1, 10, 4, 2, 4, 2, 0.65, 0.45, left, 1, 0.35, 0.45, 0.55, 0.65, 0.2670628000050783, 1, 4.000000,74.000000,1.000000,6.000000,0.500000,1.000000
SfYVARDj,100,1, test, 6, 1, 11, 1, 4, 4, 1, 0.35, 0.65, right, 2, 0.35, 0.45, 0.55, 0.65, 0.6924884999752976, 0, 4.000000,74.000000,1.000000,6.000000,0.500000,1.000000
SfYVARDj,100,1, test, 6, 1, 12, 3, 4, 3, 4, 0.55, 0.65, left, 1, 0.35, 0.45, 0.55, 0.65, 0.04909399995813146, 1, 5.000000,75.000000,1.000000,6.000000,0.500000,1.000000
SfYVARDj,100,1, test, 6, 1, 13, 3, 2, 2, 3, 0.55, 0.45, right, 2, 0.35, 0.45, 0.55, 0.65, 0.3831297000288032, 0, 5.000000,75.000000,1.000000,6.000000,0.500000,1.000000
SfYVARDj,100,1, test, 6, 1, 14, 2, 4, 2, 4, 0.45, 0.65, left, 1, 0.35, 0.45, 0.55, 0.65, 0.0001037000329233706, 0, 5.000000,75.000000,1.000000,6.000000,0.500000,1.000000
SfYVARDj,100,1, test, 6, 1, 15, 1, 3, 1, 3, 0.35, 0.55, left, 1, 0.35, 0.45, 0.55, 0.65, 0.8756136000156403, 1, 6.000000,76.000000,1.000000,6.000000,0.500000,1.000000
SfYVARDj,100,1, test, 6, 1, 16, 2, 4, 4, 2, 0.45, 0.65, right, 2, 0.35, 0.45, 0.55, 0.65, 0.18505829997593537, 0, 6.000000,76.000000,1.000000,6.000000,0.500000,1.000000
SfYVARDj,100,1, test, 6, 1, 17, 4, 3, 4, 3, 0.65, 0.55, left, 1, 0.35, 0.45, 0.55, 0.65, 0.10579430003417656, 1, 7.000000,77.000000,1.000000,6.000000,0.500000,1.000000
SfYVARDj,100,1, test, 6, 1, 18, 2, 1, 1, 2, 0.45, 0.35, right, 2, 0.35, 0.45, 0.55, 0.65, 0.16565889999037609, 1, 8.000000,78.000000,1.000000,6.000000,0.500000,1.000000
SfYVARDj,100,1, test, 6, 1, 19, 1, 3, 1, 3, 0.35, 0.55, left, 1, 0.35, 0.45, 0.55, 0.65, 0.43896220001624897, 1, 9.000000,79.000000,1.000000,6.000000,0.500000,1.000000
SfYVARDj,100,1, test, 6, 1, 20, 2, 1, 1, 2, 0.45, 0.35, right, 2, 0.35, 0.45, 0.55, 0.65, 0.5016865000361577, 0, 9.000000,79.000000,1.000000,6.000000,0.500000,1.000000
SfYVARDj,100,1, test, 6, 1, 21, 1, 4, 1, 4, 0.35, 0.65, left, 1, 0.35, 0.45, 0.55, 0.65, 0.38965169998118654, 0, 9.000000,79.000000,1.000000,6.000000,0.500000,1.000000
SfYVARDj,100,1, test, 6, 1, 22, 3, 1, 1, 3, 0.55, 0.35, right, 2, 0.35, 0.45, 0.55, 0.65, 0.49034199997549877, 0, 9.000000,79.000000,1.000000,6.000000,0.500000,1.000000
SfYVARDj,100,1, test, 6, 1, 23, 4, 2, 4, 2, 0.65, 0.45, left, 1, 0.35, 0.45, 0.55, 0.65, 0.2749096999759786, 0, 9.000000,79.000000,1.000000,6.000000,0.500000,1.000000
SfYVARDj,100,1, test, 6, 1, 24, 1, 4, 4, 1, 0.35, 0.65, right, 2, 0.35, 0.45, 0.55, 0.65, 0.10389630001736805, 0, 9.000000,79.000000,1.000000,6.000000,0.500000,1.000000
SfYVARDj,100,1, test, 6, 1, 25, 3, 4, 3, 4, 0.55, 0.65, left, 1, 0.35, 0.45, 0.55, 0.65, 0.24822469998616725, 1, 10.000000,80.000000,1.000000,6.000000,0.500000,1.000000
SfYVARDj,100,1, test, 7, 7, 1, 4, 3, 3, 4, 0.65, 0.55, right, 2, 0.35, 0.45, 0.55, 0.65, 0.4110025999834761, 1, 1.000000,81.000000,1.000000,6.000000,0.500000,1.000000
SfYVARDj,100,1, test, 7, 7, 2, 3, 2, 2, 3, 0.55, 0.45, right, 2, 0.35, 0.45, 0.55, 0.65, 0.1837966000312008, 0, 1.000000,81.000000,1.000000,6.000000,0.500000,1.000000
SfYVARDj,100,1, test, 7, 7, 3, 4, 3, 4, 3, 0.65, 0.55, left, 1, 0.35, 0.45, 0.55, 0.65, 0.885051499994006, 1, 2.000000,82.000000,1.000000,6.000000,0.500000,1.000000
SfYVARDj,100,1, test, 7, 7, 4, 2, 4, 4, 2, 0.45, 0.65, right, 2, 0.35, 0.45, 0.55, 0.65, 0.1261244000052102, 0, 2.000000,82.000000,1.000000,6.000000,0.500000,1.000000
SfYVARDj,100,1, test, 7, 7, 5, 3, 2, 3, 2, 0.55, 0.45, left, 1, 0.35, 0.45, 0.55, 0.65, 0.19838680000975728, 0, 2.000000,82.000000,1.000000,6.000000,0.500000,1.000000
SfYVARDj,100,1, test, 7, 7, 6, 1, 3, 3, 1, 0.35, 0.55, right, 2, 0.35, 0.45, 0.55, 0.65, 0.19872480002231896, 0, 2.000000,82.000000,1.000000,6.000000,0.500000,1.000000
SfYVARDj,100,1, test, 7, 7, 7, 4, 1, 4, 1, 0.65, 0.35, left, 1, 0.35, 0.45, 0.55, 0.65, 0.0001097000204026699, 1, 3.000000,83.000000,1.000000,6.000000,0.500000,1.000000
SfYVARDj,100,1, test, 7, 7, 8, 4, 2, 2, 4, 0.65, 0.45, right, 2, 0.35, 0.45, 0.55, 0.65, 0.2400463999947533, 1, 4.000000,84.000000,1.000000,6.000000,0.500000,1.000000
SfYVARDj,100,1, test, 7, 7, 9, 1, 2, 1, 2, 0.35, 0.45, left, 1, 0.35, 0.45, 0.55, 0.65, 0.25531420001061633, 0, 4.000000,84.000000,1.000000,6.000000,0.500000,1.000000
SfYVARDj,100,1, test, 7, 7, 10, 2, 3, 3, 2, 0.45, 0.55, right, 2, 0.35, 0.45, 0.55, 0.65, 0.42595850001089275, 0, 4.000000,84.000000,1.000000,6.000000,0.500000,1.000000
SfYVARDj,100,1, test, 7, 7, 11, 4, 2, 4, 2, 0.65, 0.45, left, 1, 0.35, 0.45, 0.55, 0.65, 0.22480839997297153, 1, 5.000000,85.000000,1.000000,6.000000,0.500000,1.000000
SfYVARDj,100,1, test, 7, 7, 12, 4, 3, 3, 4, 0.65, 0.55, right, 2, 0.35, 0.45, 0.55, 0.65, 0.00012459995923563838, 1, 6.000000,86.000000,1.000000,6.000000,0.500000,1.000000
SfYVARDj,100,1, test, 7, 7, 13, 1, 3, 1, 3, 0.35, 0.55, left, 1, 0.35, 0.45, 0.55, 0.65, 0.42802920000394806, 0, 6.000000,86.000000,1.000000,6.000000,0.500000,1.000000
SfYVARDj,100,1, test, 7, 7, 14, 3, 1, 1, 3, 0.55, 0.35, right, 2, 0.35, 0.45, 0.55, 0.65, 0.19603470002766699, 1, 7.000000,87.000000,1.000000,6.000000,0.500000,1.000000
SfYVARDj,100,1, test, 7, 7, 15, 3, 4, 4, 3, 0.55, 0.65, right, 2, 0.35, 0.45, 0.55, 0.65, 0.20919750002212822, 1, 8.000000,88.000000,1.000000,6.000000,0.500000,1.000000
SfYVARDj,100,1, test, 7, 7, 16, 1, 4, 1, 4, 0.35, 0.65, left, 1, 0.35, 0.45, 0.55, 0.65, 0.46598740003537387, 1, 9.000000,89.000000,1.000000,6.000000,0.500000,1.000000
SfYVARDj,100,1, test, 7, 7, 17, 2, 3, 3, 2, 0.45, 0.55, right, 2, 0.35, 0.45, 0.55, 0.65, 0.547883500054013, 0, 9.000000,89.000000,1.000000,6.000000,0.500000,1.000000
SfYVARDj,100,1, test, 7, 7, 18, 4, 1, 4, 1, 0.65, 0.35, left, 1, 0.35, 0.45, 0.55, 0.65, 0.47455189999891445, 1, 10.000000,90.000000,1.000000,6.000000,0.500000,1.000000
SfYVARDj,100,1, test, 7, 7, 19, 1, 3, 3, 1, 0.35, 0.55, right, 2, 0.35, 0.45, 0.55, 0.65, 0.2484351000166498, 0, 10.000000,90.000000,1.000000,6.000000,0.500000,1.000000
SfYVARDj,100,1, test, 7, 7, 20, 1, 4, 1, 4, 0.35, 0.65, left, 1, 0.35, 0.45, 0.55, 0.65, 0.6111872000037692, 1, 11.000000,91.000000,1.000000,6.000000,0.500000,1.000000
SfYVARDj,100,1, test, 7, 7, 21, 3, 1, 1, 3, 0.55, 0.35, right, 2, 0.35, 0.45, 0.55, 0.65, 0.2395890000043437, 0, 11.000000,91.000000,1.000000,6.000000,0.500000,1.000000
SfYVARDj,100,1, test, 7, 7, 22, 4, 2, 2, 4, 0.65, 0.45, right, 2, 0.35, 0.45, 0.55, 0.65, 0.3598368000239134, 0, 11.000000,91.000000,1.000000,6.000000,0.500000,1.000000
SfYVARDj,100,1, test, 7, 7, 23, 1, 2, 2, 1, 0.35, 0.45, right, 2, 0.35, 0.45, 0.55, 0.65, 0.3098490000120364, 0, 11.000000,91.000000,1.000000,6.000000,0.500000,1.000000
SfYVARDj,100,1, test, 7, 7, 24, 4, 2, 4, 2, 0.65, 0.45, left, 1, 0.35, 0.45, 0.55, 0.65, 0.5301968000130728, 1, 12.000000,92.000000,1.000000,6.000000,0.500000,1.000000
SfYVARDj,100,1, test, 7, 7, 25, 3, 4, 4, 3, 0.55, 0.65, right, 2, 0.35, 0.45, 0.55, 0.65, 0.42173210001783445, 1, 13.000000,93.000000,1.000000,6.000000,0.500000,1.000000
SfYVARDj,100,1, test, 8, 1, 1, 4, 3, 3, 4, 0.65, 0.55, right, 2, 0.35, 0.45, 0.55, 0.65, 0.8235611999989487, 1, 1.000000,94.000000,1.000000,6.000000,0.500000,1.000000
SfYVARDj,100,1, test, 8, 1, 2, 2, 3, 3, 2, 0.45, 0.55, right, 2, 0.35, 0.45, 0.55, 0.65, 0.3234808999695815, 1, 2.000000,95.000000,1.000000,6.000000,0.500000,1.000000
SfYVARDj,100,1, test, 8, 1, 3, 1, 3, 1, 3, 0.35, 0.55, left, 1, 0.35, 0.45, 0.55, 0.65, 0.33556690003024414, 1, 3.000000,96.000000,1.000000,6.000000,0.500000,1.000000
SfYVARDj,100,1, test, 8, 1, 4, 3, 1, 1, 3, 0.55, 0.35, right, 2, 0.35, 0.45, 0.55, 0.65, 0.26674239995190874, 1, 4.000000,97.000000,1.000000,6.000000,0.500000,1.000000
SfYVARDj,100,1, test, 8, 1, 5, 3, 1, 3, 1, 0.55, 0.35, left, 1, 0.35, 0.45, 0.55, 0.65, 0.24870759999612346, 0, 4.000000,97.000000,1.000000,6.000000,0.500000,1.000000
SfYVARDj,100,1, test, 8, 1, 6, 1, 2, 2, 1, 0.35, 0.45, right, 2, 0.35, 0.45, 0.55, 0.65, 0.25966340000741184, 0, 4.000000,97.000000,1.000000,6.000000,0.500000,1.000000
SfYVARDj,100,1, test, 8, 1, 7, 1, 3, 1, 3, 0.35, 0.55, left, 1, 0.35, 0.45, 0.55, 0.65, 0.2941817999817431, 0, 4.000000,97.000000,1.000000,6.000000,0.500000,1.000000
SfYVARDj,100,1, test, 8, 1, 8, 3, 4, 4, 3, 0.55, 0.65, right, 2, 0.35, 0.45, 0.55, 0.65, 0.23161489999620244, 0, 4.000000,97.000000,1.000000,6.000000,0.500000,1.000000
SfYVARDj,100,1, test, 8, 1, 9, 3, 2, 2, 3, 0.55, 0.45, right, 2, 0.35, 0.45, 0.55, 0.65, 0.17094179999548942, 1, 5.000000,98.000000,1.000000,6.000000,0.500000,1.000000
SfYVARDj,100,1, test, 8, 1, 10, 4, 3, 4, 3, 0.65, 0.55, left, 1, 0.35, 0.45, 0.55, 0.65, 0.37679940002271906, 0, 5.000000,98.000000,1.000000,6.000000,0.500000,1.000000
SfYVARDj,100,1, test, 8, 1, 11, 2, 1, 1, 2, 0.45, 0.35, right, 2, 0.35, 0.45, 0.55, 0.65, 0.2187256999895908, 1, 6.000000,99.000000,1.000000,6.000000,0.500000,1.000000
SfYVARDj,100,1, test, 8, 1, 12, 1, 3, 3, 1, 0.35, 0.55, right, 2, 0.35, 0.45, 0.55, 0.65, 0.1829454000107944, 1, 7.000000,100.000000,1.000000,6.000000,0.500000,1.000000
SfYVARDj,100,1, test, 8, 1, 13, 4, 1, 1, 4, 0.65, 0.35, right, 2, 0.35, 0.45, 0.55, 0.65, 0.18811700004152954, 1, 8.000000,101.000000,1.000000,6.000000,0.500000,1.000000
SfYVARDj,100,1, test, 8, 1, 14, 4, 1, 4, 1, 0.65, 0.35, left, 1, 0.35, 0.45, 0.55, 0.65, 0.0001162000116892159, 1, 9.000000,102.000000,1.000000,6.000000,0.500000,1.000000
SfYVARDj,100,1, test, 8, 1, 15, 1, 3, 3, 1, 0.35, 0.55, right, 2, 0.35, 0.45, 0.55, 0.65, 0.24209960002917796, 1, 10.000000,103.000000,1.000000,6.000000,0.500000,1.000000
SfYVARDj,100,1, test, 8, 1, 16, 3, 2, 2, 3, 0.55, 0.45, right, 2, 0.35, 0.45, 0.55, 0.65, 0.32940369995776564, 0, 10.000000,103.000000,1.000000,6.000000,0.500000,1.000000
SfYVARDj,100,1, test, 8, 1, 17, 1, 3, 3, 1, 0.35, 0.55, right, 2, 0.35, 0.45, 0.55, 0.65, 0.6214413000270724, 1, 11.000000,104.000000,1.000000,6.000000,0.500000,1.000000
SfYVARDj,100,1, test, 8, 1, 18, 4, 2, 4, 2, 0.65, 0.45, left, 1, 0.35, 0.45, 0.55, 0.65, 0.20932629995513707, 0, 11.000000,104.000000,1.000000,6.000000,0.500000,1.000000
SfYVARDj,100,1, test, 8, 1, 19, 1, 4, 4, 1, 0.35, 0.65, right, 2, 0.35, 0.45, 0.55, 0.65, 0.2062032000394538, 0, 11.000000,104.000000,1.000000,6.000000,0.500000,1.000000
SfYVARDj,100,1, test, 8, 1, 20, 1, 4, 1, 4, 0.35, 0.65, left, 1, 0.35, 0.45, 0.55, 0.65, 0.2427356000407599, 1, 12.000000,105.000000,1.000000,6.000000,0.500000,1.000000
SfYVARDj,100,1, test, 8, 1, 21, 3, 4, 4, 3, 0.55, 0.65, right, 2, 0.35, 0.45, 0.55, 0.65, 0.23816869995789602, 1, 13.000000,106.000000,1.000000,6.000000,0.500000,1.000000
SfYVARDj,100,1, test, 8, 1, 22, 4, 1, 1, 4, 0.65, 0.35, right, 2, 0.35, 0.45, 0.55, 0.65, 0.22973459999775514, 1, 14.000000,107.000000,1.000000,6.000000,0.500000,1.000000
SfYVARDj,100,1, test, 8, 1, 23, 4, 3, 3, 4, 0.65, 0.55, right, 2, 0.35, 0.45, 0.55, 0.65, 0.2642356000142172, 0, 14.000000,107.000000,1.000000,6.000000,0.500000,1.000000
SfYVARDj,100,1, test, 8, 1, 24, 3, 2, 3, 2, 0.55, 0.45, left, 1, 0.35, 0.45, 0.55, 0.65, 0.2186500999960117, 1, 15.000000,108.000000,1.000000,6.000000,0.500000,1.000000
SfYVARDj,100,1, test, 8, 1, 25, 2, 4, 4, 2, 0.45, 0.65, right, 2, 0.35, 0.45, 0.55, 0.65, 0.5346482000313699, 0, 15.000000,108.000000,1.000000,6.000000,0.500000,1.000000
