ShaharID, group, counterbalance, block_type, block, delay_condition, trial, chosen, unchosen, offer_left_image, offer_right_image, exp_value_chosen, exp_value_unchosen, choice_location, choice_key, exp_value1, exp_value2, exp_value3, exp_value4, RT, reward, coins_per_block, coins_per_task,ITI_duration,rt_deadline,choice_feedback_duration,outcome_duration
3i8lkN5J,200,1, practice, 1, 1, 1, 4, 1, 4, 1, 0.65, 0.35, left, 1, 0.35, 0.45, 0.55, 0.65, 2.6273330999538302, 1, 1.000000,1.000000,1.000000,6.000000,0.500000,1.000000
3i8lkN5J,200,1, practice, 1, 1, 2, 2, 1, 1, 2, 0.45, 0.35, right, 2, 0.35, 0.45, 0.55, 0.65, 1.2766426000744104, 1, 2.000000,2.000000,1.000000,6.000000,0.500000,1.000000
3i8lkN5J,200,1, practice, 1, 1, 3, 2, 3, 2, 3, 0.45, 0.55, left, 1, 0.35, 0.45, 0.55, 0.65, 1.7494880000595003, 0, 2.000000,2.000000,1.000000,6.000000,0.500000,1.000000
3i8lkN5J,200,1, practice, 1, 1, 4, 2, 3, 2, 3, 0.45, 0.55, left, 1, 0.35, 0.45, 0.55, 0.65, 1.425176499877125, 1, 3.000000,3.000000,1.000000,6.000000,0.500000,1.000000
3i8lkN5J,200,1, practice, 1, 1, 5, 2, 3, 2, 3, 0.45, 0.55, left, 1, 0.35, 0.45, 0.55, 0.65, 0.8481091998983175, 1, 4.000000,4.000000,1.000000,6.000000,0.500000,1.000000
3i8lkN5J,200,1, test, 1, 7, 1, 2, 4, 4, 2, 0.45, 0.65, right, 2, 0.35, 0.45, 0.55, 0.65, 1.0124747999943793, 0, 0.000000,4.000000,1.000000,6.000000,0.500000,1.000000
3i8lkN5J,200,1, test, 1, 7, 2, 3, 4, 3, 4, 0.55, 0.65, left, 1, 0.35, 0.45, 0.55, 0.65, 0.9712706999853253, 1, 1.000000,5.000000,1.000000,6.000000,0.500000,1.000000
3i8lkN5J,200,1, test, 1, 7, 3, 3, 2, 3, 2, 0.55, 0.45, left, 1, 0.35, 0.45, 0.55, 0.65, 1.0186846998985857, 1, 2.000000,6.000000,1.000000,6.000000,0.500000,1.000000
3i8lkN5J,200,1, test, 1, 7, 4, 3, 2, 3, 2, 0.55, 0.45, left, 1, 0.35, 0.45, 0.55, 0.65, 0.5658359001390636, 1, 3.000000,7.000000,1.000000,6.000000,0.500000,1.000000
3i8lkN5J,200,1, test, 1, 7, 5, 3, 4, 3, 4, 0.55, 0.65, left, 1, 0.35, 0.45, 0.55, 0.65, 0.6086633999366313, 0, 3.000000,7.000000,1.000000,6.000000,0.500000,1.000000
3i8lkN5J,200,1, test, 1, 7, 6, 3, 2, 2, 3, 0.55, 0.45, right, 2, 0.35, 0.45, 0.55, 0.65, 0.756834200117737, 0, 3.000000,7.000000,1.000000,6.000000,0.500000,1.000000
3i8lkN5J,200,1, test, 1, 7, 7, 4, 2, 4, 2, 0.65, 0.45, left, 1, 0.35, 0.45, 0.55, 0.65, 1.8079588999971747, 1, 4.000000,8.000000,1.000000,6.000000,0.500000,1.000000
3i8lkN5J,200,1, test, 1, 7, 8, 3, 2, 2, 3, 0.55, 0.45, right, 2, 0.35, 0.45, 0.55, 0.65, 1.279573200037703, 0, 4.000000,8.000000,1.000000,6.000000,0.500000,1.000000
3i8lkN5J,200,1, test, 1, 7, 9, 3, 2, 3, 2, 0.55, 0.45, left, 1, 0.35, 0.45, 0.55, 0.65, 0.3822409000713378, 0, 4.000000,8.000000,1.000000,6.000000,0.500000,1.000000
3i8lkN5J,200,1, test, 1, 7, 10, 4, 1, 4, 1, 0.65, 0.35, left, 1, 0.35, 0.45, 0.55, 0.65, 1.6916167999152094, 1, 5.000000,9.000000,1.000000,6.000000,0.500000,1.000000
3i8lkN5J,200,1, test, 1, 7, 11, 1, 2, 1, 2, 0.35, 0.45, left, 1, 0.35, 0.45, 0.55, 0.65, 1.2600334999151528, 1, 6.000000,10.000000,1.000000,6.000000,0.500000,1.000000
3i8lkN5J,200,1, test, 1, 7, 12, 3, 4, 3, 4, 0.55, 0.65, left, 1, 0.35, 0.45, 0.55, 0.65, 0.7026148999575526, 1, 7.000000,11.000000,1.000000,6.000000,0.500000,1.000000
3i8lkN5J,200,1, test, 1, 7, 13, 3, 4, 4, 3, 0.55, 0.65, right, 2, 0.35, 0.45, 0.55, 0.65, 0.9823463000357151, 1, 8.000000,12.000000,1.000000,6.000000,0.500000,1.000000
3i8lkN5J,200,1, test, 1, 7, 14, 1, 2, 2, 1, 0.35, 0.45, right, 2, 0.35, 0.45, 0.55, 0.65, 1.1080004000104964, 0, 8.000000,12.000000,1.000000,6.000000,0.500000,1.000000
3i8lkN5J,200,1, test, 1, 7, 15, 3, 4, 3, 4, 0.55, 0.65, left, 1, 0.35, 0.45, 0.55, 0.65, 0.6768664000555873, 1, 9.000000,13.000000,1.000000,6.000000,0.500000,1.000000
3i8lkN5J,200,1, test, 1, 7, 16, 3, 1, 3, 1, 0.55, 0.35, left, 1, 0.35, 0.45, 0.55, 0.65, 0.5036675001028925, 1, 10.000000,14.000000,1.000000,6.000000,0.500000,1.000000
3i8lkN5J,200,1, test, 1, 7, 17, 3, 1, 1, 3, 0.55, 0.35, right, 2, 0.35, 0.45, 0.55, 0.65, 0.6282319999299943, 1, 11.000000,15.000000,1.000000,6.000000,0.500000,1.000000
3i8lkN5J,200,1, test, 1, 7, 18, 3, 1, 3, 1, 0.55, 0.35, left, 1, 0.35, 0.45, 0.55, 0.65, 0.42834339989349246, 0, 11.000000,15.000000,1.000000,6.000000,0.500000,1.000000
3i8lkN5J,200,1, test, 1, 7, 19, 4, 2, 2, 4, 0.65, 0.45, right, 2, 0.35, 0.45, 0.55, 0.65, 1.0434589001815766, 1, 12.000000,16.000000,1.000000,6.000000,0.500000,1.000000
3i8lkN5J,200,1, test, 1, 7, 20, 3, 1, 3, 1, 0.55, 0.35, left, 1, 0.35, 0.45, 0.55, 0.65, 0.5188122999388725, 0, 12.000000,16.000000,1.000000,6.000000,0.500000,1.000000
3i8lkN5J,200,1, test, 1, 7, 21, 4, 2, 4, 2, 0.65, 0.45, left, 1, 0.35, 0.45, 0.55, 0.65, 0.8349407000932842, 0, 12.000000,16.000000,1.000000,6.000000,0.500000,1.000000
3i8lkN5J,200,1, test, 1, 7, 22, 4, 2, 2, 4, 0.65, 0.45, right, 2, 0.35, 0.45, 0.55, 0.65, 1.5746555000077933, 0, 12.000000,16.000000,1.000000,6.000000,0.500000,1.000000
3i8lkN5J,200,1, test, 1, 7, 23, 3, 4, 4, 3, 0.55, 0.65, right, 2, 0.35, 0.45, 0.55, 0.65, 0.5682748998515308, 0, 12.000000,16.000000,1.000000,6.000000,0.500000,1.000000
3i8lkN5J,200,1, test, 1, 7, 24, 3, 1, 3, 1, 0.55, 0.35, left, 1, 0.35, 0.45, 0.55, 0.65, 0.6301122999284416, 1, 13.000000,17.000000,1.000000,6.000000,0.500000,1.000000
3i8lkN5J,200,1, test, 1, 7, 25, 4, 2, 2, 4, 0.65, 0.45, right, 2, 0.35, 0.45, 0.55, 0.65, 2.6891939002089202, 1, 14.000000,18.000000,1.000000,6.000000,0.500000,1.000000
3i8lkN5J,200,1, test, 2, 1, 1, 2, 1, 1, 2, 0.45, 0.35, right, 2, 0.35, 0.45, 0.55, 0.65, 1.8728720000945032, 0, 0.000000,18.000000,1.000000,6.000000,0.500000,1.000000
3i8lkN5J,200,1, test, 2, 1, 2, 3, 2, 3, 2, 0.55, 0.45, left, 1, 0.35, 0.45, 0.55, 0.65, 0.6269232998602092, 1, 1.000000,19.000000,1.000000,6.000000,0.500000,1.000000
3i8lkN5J,200,1, test, 2, 1, 3, 4, 2, 2, 4, 0.65, 0.45, right, 2, 0.35, 0.45, 0.55, 0.65, 0.7188768000341952, 1, 2.000000,20.000000,1.000000,6.000000,0.500000,1.000000
3i8lkN5J,200,1, test, 2, 1, 4, 4, 2, 2, 4, 0.65, 0.45, right, 2, 0.35, 0.45, 0.55, 0.65, 0.6628503000829369, 1, 3.000000,21.000000,1.000000,6.000000,0.500000,1.000000
3i8lkN5J,200,1, test, 2, 1, 5, 3, 1, 3, 1, 0.55, 0.35, left, 1, 0.35, 0.45, 0.55, 0.65, 0.8168954998254776, 1, 4.000000,22.000000,1.000000,6.000000,0.500000,1.000000
3i8lkN5J,200,1, test, 2, 1, 6, 3, 1, 3, 1, 0.55, 0.35, left, 1, 0.35, 0.45, 0.55, 0.65, 0.6365662000607699, 1, 5.000000,23.000000,1.000000,6.000000,0.500000,1.000000
3i8lkN5J,200,1, test, 2, 1, 7, 4, 2, 2, 4, 0.65, 0.45, right, 2, 0.35, 0.45, 0.55, 0.65, 0.5722131999209523, 1, 6.000000,24.000000,1.000000,6.000000,0.500000,1.000000
3i8lkN5J,200,1, test, 2, 1, 8, 1, 2, 2, 1, 0.35, 0.45, right, 2, 0.35, 0.45, 0.55, 0.65, 1.0981962999794632, 1, 7.000000,25.000000,1.000000,6.000000,0.500000,1.000000
3i8lkN5J,200,1, test, 2, 1, 9, 3, 1, 1, 3, 0.55, 0.35, right, 2, 0.35, 0.45, 0.55, 0.65, 1.0463183999527246, 1, 8.000000,26.000000,1.000000,6.000000,0.500000,1.000000
3i8lkN5J,200,1, test, 2, 1, 10, 1, 2, 1, 2, 0.35, 0.45, left, 1, 0.35, 0.45, 0.55, 0.65, 1.083502900088206, 0, 8.000000,26.000000,1.000000,6.000000,0.500000,1.000000
3i8lkN5J,200,1, test, 2, 1, 11, 3, 4, 3, 4, 0.55, 0.65, left, 1, 0.35, 0.45, 0.55, 0.65, 1.0106742000207305, 0, 8.000000,26.000000,1.000000,6.000000,0.500000,1.000000
3i8lkN5J,200,1, test, 2, 1, 12, 3, 1, 3, 1, 0.55, 0.35, left, 1, 0.35, 0.45, 0.55, 0.65, 0.5585148998070508, 0, 8.000000,26.000000,1.000000,6.000000,0.500000,1.000000
3i8lkN5J,200,1, test, 2, 1, 13, 3, 2, 2, 3, 0.55, 0.45, right, 2, 0.35, 0.45, 0.55, 0.65, 1.241060399916023, 1, 9.000000,27.000000,1.000000,6.000000,0.500000,1.000000
3i8lkN5J,200,1, test, 2, 1, 14, 3, 2, 3, 2, 0.55, 0.45, left, 1, 0.35, 0.45, 0.55, 0.65, 0.5397045998834074, 1, 10.000000,28.000000,1.000000,6.000000,0.500000,1.000000
3i8lkN5J,200,1, test, 2, 1, 15, 3, 1, 3, 1, 0.55, 0.35, left, 1, 0.35, 0.45, 0.55, 0.65, 0.5880189000163227, 1, 11.000000,29.000000,1.000000,6.000000,0.500000,1.000000
3i8lkN5J,200,1, test, 2, 1, 16, 3, 1, 3, 1, 0.55, 0.35, left, 1, 0.35, 0.45, 0.55, 0.65, 0.36864589992910624, 1, 12.000000,30.000000,1.000000,6.000000,0.500000,1.000000
3i8lkN5J,200,1, test, 2, 1, 17, 4, 2, 4, 2, 0.65, 0.45, left, 1, 0.35, 0.45, 0.55, 0.65, 0.9121093999128789, 1, 13.000000,31.000000,1.000000,6.000000,0.500000,1.000000
3i8lkN5J,200,1, test, 2, 1, 18, 1, 2, 1, 2, 0.35, 0.45, left, 1, 0.35, 0.45, 0.55, 0.65, 1.4820580000523478, 1, 14.000000,32.000000,1.000000,6.000000,0.500000,1.000000
3i8lkN5J,200,1, test, 2, 1, 19, 1, 2, 2, 1, 0.35, 0.45, right, 2, 0.35, 0.45, 0.55, 0.65, 0.7717516999691725, 0, 14.000000,32.000000,1.000000,6.000000,0.500000,1.000000
3i8lkN5J,200,1, test, 2, 1, 20, 4, 3, 4, 3, 0.65, 0.55, left, 1, 0.35, 0.45, 0.55, 0.65, 0.6014127000235021, 0, 14.000000,32.000000,1.000000,6.000000,0.500000,1.000000
3i8lkN5J,200,1, test, 2, 1, 21, 3, 2, 2, 3, 0.55, 0.45, right, 2, 0.35, 0.45, 0.55, 0.65, 0.4590041001792997, 0, 14.000000,32.000000,1.000000,6.000000,0.500000,1.000000
3i8lkN5J,200,1, test, 2, 1, 22, 3, 1, 1, 3, 0.55, 0.35, right, 2, 0.35, 0.45, 0.55, 0.65, 0.5180718000046909, 0, 14.000000,32.000000,1.000000,6.000000,0.500000,1.000000
3i8lkN5J,200,1, test, 2, 1, 23, 3, 4, 4, 3, 0.55, 0.65, right, 2, 0.35, 0.45, 0.55, 0.65, 0.7906349999830127, 0, 14.000000,32.000000,1.000000,6.000000,0.500000,1.000000
3i8lkN5J,200,1, test, 2, 1, 24, 1, 2, 1, 2, 0.35, 0.45, left, 1, 0.35, 0.45, 0.55, 0.65, 0.7708560999017209, 1, 15.000000,33.000000,1.000000,6.000000,0.500000,1.000000
3i8lkN5J,200,1, test, 2, 1, 25, 3, 4, 3, 4, 0.55, 0.65, left, 1, 0.35, 0.45, 0.55, 0.65, 0.9881684998981655, 0, 15.000000,33.000000,1.000000,6.000000,0.500000,1.000000
3i8lkN5J,200,1, test, 3, 7, 1, 2, 3, 3, 2, 0.45, 0.55, right, 2, 0.35, 0.45, 0.55, 0.65, 1.7601711999159306, 0, 0.000000,33.000000,1.000000,6.000000,0.500000,1.000000
3i8lkN5J,200,1, test, 3, 7, 2, 3, 2, 3, 2, 0.55, 0.45, left, 1, 0.35, 0.45, 0.55, 0.65, 0.8975051001179963, 0, 0.000000,33.000000,1.000000,6.000000,0.500000,1.000000
3i8lkN5J,200,1, test, 3, 7, 3, 4, 3, 4, 3, 0.65, 0.55, left, 1, 0.35, 0.45, 0.55, 0.65, 0.6420564001891762, 1, 1.000000,34.000000,1.000000,6.000000,0.500000,1.000000
3i8lkN5J,200,1, test, 3, 7, 4, 4, 2, 2, 4, 0.65, 0.45, right, 2, 0.35, 0.45, 0.55, 0.65, 0.5303713998291641, 1, 2.000000,35.000000,1.000000,6.000000,0.500000,1.000000
3i8lkN5J,200,1, test, 3, 7, 5, 2, 3, 3, 2, 0.45, 0.55, right, 2, 0.35, 0.45, 0.55, 0.65, 1.5019427000079304, 1, 3.000000,36.000000,1.000000,6.000000,0.500000,1.000000
3i8lkN5J,200,1, test, 3, 7, 6, 2, 3, 2, 3, 0.45, 0.55, left, 1, 0.35, 0.45, 0.55, 0.65, 1.026500100037083, 0, 3.000000,36.000000,1.000000,6.000000,0.500000,1.000000
3i8lkN5J,200,1, test, 3, 7, 7, 3, 2, 2, 3, 0.55, 0.45, right, 2, 0.35, 0.45, 0.55, 0.65, 0.6067289002239704, 1, 4.000000,37.000000,1.000000,6.000000,0.500000,1.000000
3i8lkN5J,200,1, test, 3, 7, 8, 3, 1, 3, 1, 0.55, 0.35, left, 1, 0.35, 0.45, 0.55, 0.65, 0.9986624999437481, 0, 4.000000,37.000000,1.000000,6.000000,0.500000,1.000000
3i8lkN5J,200,1, test, 3, 7, 9, 1, 2, 2, 1, 0.35, 0.45, right, 2, 0.35, 0.45, 0.55, 0.65, 0.9984357999637723, 0, 4.000000,37.000000,1.000000,6.000000,0.500000,1.000000
3i8lkN5J,200,1, test, 3, 7, 10, 4, 3, 4, 3, 0.65, 0.55, left, 1, 0.35, 0.45, 0.55, 0.65, 0.34891980001702905, 1, 5.000000,38.000000,1.000000,6.000000,0.500000,1.000000
3i8lkN5J,200,1, test, 3, 7, 11, 3, 1, 3, 1, 0.55, 0.35, left, 1, 0.35, 0.45, 0.55, 0.65, 0.9475326999090612, 1, 6.000000,39.000000,1.000000,6.000000,0.500000,1.000000
3i8lkN5J,200,1, test, 3, 7, 12, 3, 2, 2, 3, 0.55, 0.45, right, 2, 0.35, 0.45, 0.55, 0.65, 0.61431650002487, 1, 7.000000,40.000000,1.000000,6.000000,0.500000,1.000000
3i8lkN5J,200,1, test, 3, 7, 13, 4, 1, 4, 1, 0.65, 0.35, left, 1, 0.35, 0.45, 0.55, 0.65, 0.4208587999455631, 0, 7.000000,40.000000,1.000000,6.000000,0.500000,1.000000
3i8lkN5J,200,1, test, 3, 7, 14, 2, 1, 1, 2, 0.45, 0.35, right, 2, 0.35, 0.45, 0.55, 0.65, 1.1900622001849115, 1, 8.000000,41.000000,1.000000,6.000000,0.500000,1.000000
3i8lkN5J,200,1, test, 3, 7, 15, 4, 2, 4, 2, 0.65, 0.45, left, 1, 0.35, 0.45, 0.55, 0.65, 0.5788536998443305, 1, 9.000000,42.000000,1.000000,6.000000,0.500000,1.000000
3i8lkN5J,200,1, test, 3, 7, 16, 2, 1, 1, 2, 0.45, 0.35, right, 2, 0.35, 0.45, 0.55, 0.65, 1.0166946002282202, 0, 9.000000,42.000000,1.000000,6.000000,0.500000,1.000000
3i8lkN5J,200,1, test, 3, 7, 17, 3, 1, 3, 1, 0.55, 0.35, left, 1, 0.35, 0.45, 0.55, 0.65, 0.8910515999887139, 1, 10.000000,43.000000,1.000000,6.000000,0.500000,1.000000
3i8lkN5J,200,1, test, 3, 7, 18, 4, 1, 4, 1, 0.65, 0.35, left, 1, 0.35, 0.45, 0.55, 0.65, 0.5855334000661969, 0, 10.000000,43.000000,1.000000,6.000000,0.500000,1.000000
3i8lkN5J,200,1, test, 3, 7, 19, 4, 3, 4, 3, 0.65, 0.55, left, 1, 0.35, 0.45, 0.55, 0.65, 0.47088879998773336, 0, 10.000000,43.000000,1.000000,6.000000,0.500000,1.000000
3i8lkN5J,200,1, test, 3, 7, 20, 4, 3, 4, 3, 0.65, 0.55, left, 1, 0.35, 0.45, 0.55, 0.65, 0.64070999994874, 0, 10.000000,43.000000,1.000000,6.000000,0.500000,1.000000
3i8lkN5J,200,1, test, 3, 7, 21, 4, 2, 2, 4, 0.65, 0.45, right, 2, 0.35, 0.45, 0.55, 0.65, 0.5322528998367488, 1, 11.000000,44.000000,1.000000,6.000000,0.500000,1.000000
3i8lkN5J,200,1, test, 3, 7, 22, 4, 1, 1, 4, 0.65, 0.35, right, 2, 0.35, 0.45, 0.55, 0.65, 0.5271612000651658, 0, 11.000000,44.000000,1.000000,6.000000,0.500000,1.000000
3i8lkN5J,200,1, test, 3, 7, 23, 4, 2, 2, 4, 0.65, 0.45, right, 2, 0.35, 0.45, 0.55, 0.65, 0.6355069000273943, 1, 12.000000,45.000000,1.000000,6.000000,0.500000,1.000000
3i8lkN5J,200,1, test, 3, 7, 24, 4, 3, 4, 3, 0.65, 0.55, left, 1, 0.35, 0.45, 0.55, 0.65, 0.4973299999255687, 0, 12.000000,45.000000,1.000000,6.000000,0.500000,1.000000
3i8lkN5J,200,1, test, 3, 7, 25, 3, 1, 1, 3, 0.55, 0.35, right, 2, 0.35, 0.45, 0.55, 0.65, 1.737965099979192, 1, 13.000000,46.000000,1.000000,6.000000,0.500000,1.000000
3i8lkN5J,200,1, test, 4, 1, 1, 4, 1, 1, 4, 0.65, 0.35, right, 2, 0.35, 0.45, 0.55, 0.65, 2.6321670999750495, 1, 1.000000,47.000000,1.000000,6.000000,0.500000,1.000000
3i8lkN5J,200,1, test, 4, 1, 2, 3, 2, 3, 2, 0.55, 0.45, left, 1, 0.35, 0.45, 0.55, 0.65, 1.7419432001188397, 1, 2.000000,48.000000,1.000000,6.000000,0.500000,1.000000
3i8lkN5J,200,1, test, 4, 1, 3, 3, 2, 3, 2, 0.55, 0.45, left, 1, 0.35, 0.45, 0.55, 0.65, 0.6267214000690728, 0, 2.000000,48.000000,1.000000,6.000000,0.500000,1.000000
3i8lkN5J,200,1, test, 4, 1, 4, 2, 1, 1, 2, 0.45, 0.35, right, 2, 0.35, 0.45, 0.55, 0.65, 0.6907399999909103, 1, 3.000000,49.000000,1.000000,6.000000,0.500000,1.000000
3i8lkN5J,200,1, test, 4, 1, 5, 2, 1, 2, 1, 0.45, 0.35, left, 1, 0.35, 0.45, 0.55, 0.65, 0.7241217999253422, 0, 3.000000,49.000000,1.000000,6.000000,0.500000,1.000000
3i8lkN5J,200,1, test, 4, 1, 6, 2, 1, 2, 1, 0.45, 0.35, left, 1, 0.35, 0.45, 0.55, 0.65, 0.5919098001904786, 0, 3.000000,49.000000,1.000000,6.000000,0.500000,1.000000
3i8lkN5J,200,1, test, 4, 1, 7, 4, 1, 4, 1, 0.65, 0.35, left, 1, 0.35, 0.45, 0.55, 0.65, 0.7677541999146342, 0, 3.000000,49.000000,1.000000,6.000000,0.500000,1.000000
3i8lkN5J,200,1, test, 4, 1, 8, 4, 3, 4, 3, 0.65, 0.55, left, 1, 0.35, 0.45, 0.55, 0.65, 0.4793738001026213, 1, 4.000000,50.000000,1.000000,6.000000,0.500000,1.000000
3i8lkN5J,200,1, test, 4, 1, 9, 2, 1, 2, 1, 0.45, 0.35, left, 1, 0.35, 0.45, 0.55, 0.65, 0.7926426997873932, 1, 5.000000,51.000000,1.000000,6.000000,0.500000,1.000000
3i8lkN5J,200,1, test, 4, 1, 10, 3, 1, 1, 3, 0.55, 0.35, right, 2, 0.35, 0.45, 0.55, 0.65, 1.125006000045687, 0, 5.000000,51.000000,1.000000,6.000000,0.500000,1.000000
3i8lkN5J,200,1, test, 4, 1, 11, 3, 2, 3, 2, 0.55, 0.45, left, 1, 0.35, 0.45, 0.55, 0.65, 0.7261150998529047, 0, 5.000000,51.000000,1.000000,6.000000,0.500000,1.000000
3i8lkN5J,200,1, test, 4, 1, 12, 2, 3, 2, 3, 0.45, 0.55, left, 1, 0.35, 0.45, 0.55, 0.65, 0.4006113999057561, 0, 5.000000,51.000000,1.000000,6.000000,0.500000,1.000000
3i8lkN5J,200,1, test, 4, 1, 13, 4, 1, 4, 1, 0.65, 0.35, left, 1, 0.35, 0.45, 0.55, 0.65, 0.578634100034833, 1, 6.000000,52.000000,1.000000,6.000000,0.500000,1.000000
3i8lkN5J,200,1, test, 4, 1, 14, 4, 2, 2, 4, 0.65, 0.45, right, 2, 0.35, 0.45, 0.55, 0.65, 0.41143200010992587, 1, 7.000000,53.000000,1.000000,6.000000,0.500000,1.000000
3i8lkN5J,200,1, test, 4, 1, 15, 4, 2, 2, 4, 0.65, 0.45, right, 2, 0.35, 0.45, 0.55, 0.65, 1.211800100049004, 0, 7.000000,53.000000,1.000000,6.000000,0.500000,1.000000
3i8lkN5J,200,1, test, 4, 1, 16, 4, 1, 1, 4, 0.65, 0.35, right, 2, 0.35, 0.45, 0.55, 0.65, 0.545224100118503, 0, 7.000000,53.000000,1.000000,6.000000,0.500000,1.000000
3i8lkN5J,200,1, test, 4, 1, 17, 4, 3, 3, 4, 0.65, 0.55, right, 2, 0.35, 0.45, 0.55, 0.65, 0.7520024999976158, 0, 7.000000,53.000000,1.000000,6.000000,0.500000,1.000000
3i8lkN5J,200,1, test, 4, 1, 18, 4, 1, 4, 1, 0.65, 0.35, left, 1, 0.35, 0.45, 0.55, 0.65, 0.5114427998196334, 1, 8.000000,54.000000,1.000000,6.000000,0.500000,1.000000
3i8lkN5J,200,1, test, 4, 1, 19, 2, 1, 2, 1, 0.45, 0.35, left, 1, 0.35, 0.45, 0.55, 0.65, 0.4826548998244107, 1, 9.000000,55.000000,1.000000,6.000000,0.500000,1.000000
3i8lkN5J,200,1, test, 4, 1, 20, 2, 4, 2, 4, 0.45, 0.65, left, 1, 0.35, 0.45, 0.55, 0.65, 1.2196553000248969, 0, 9.000000,55.000000,1.000000,6.000000,0.500000,1.000000
3i8lkN5J,200,1, test, 4, 1, 21, 4, 1, 1, 4, 0.65, 0.35, right, 2, 0.35, 0.45, 0.55, 0.65, 0.47591640008613467, 0, 9.000000,55.000000,1.000000,6.000000,0.500000,1.000000
3i8lkN5J,200,1, test, 4, 1, 22, 4, 3, 4, 3, 0.65, 0.55, left, 1, 0.35, 0.45, 0.55, 0.65, 0.7473203998524696, 1, 10.000000,56.000000,1.000000,6.000000,0.500000,1.000000
3i8lkN5J,200,1, test, 4, 1, 23, 2, 1, 2, 1, 0.45, 0.35, left, 1, 0.35, 0.45, 0.55, 0.65, 0.6644038998056203, 1, 11.000000,57.000000,1.000000,6.000000,0.500000,1.000000
3i8lkN5J,200,1, test, 4, 1, 24, 2, 3, 2, 3, 0.45, 0.55, left, 1, 0.35, 0.45, 0.55, 0.65, 0.5517146999482065, 1, 12.000000,58.000000,1.000000,6.000000,0.500000,1.000000
3i8lkN5J,200,1, test, 4, 1, 25, 4, 3, 4, 3, 0.65, 0.55, left, 1, 0.35, 0.45, 0.55, 0.65, 0.7770110999699682, 1, 13.000000,59.000000,1.000000,6.000000,0.500000,1.000000
3i8lkN5J,200,1, test, 5, 7, 1, 1, 2, 2, 1, 0.35, 0.45, right, 2, 0.35, 0.45, 0.55, 0.65, 0.7774212998338044, 0, 0.000000,59.000000,1.000000,6.000000,0.500000,1.000000
3i8lkN5J,200,1, test, 5, 7, 2, 3, 2, 3, 2, 0.55, 0.45, left, 1, 0.35, 0.45, 0.55, 0.65, 0.44817269989289343, 1, 1.000000,60.000000,1.000000,6.000000,0.500000,1.000000
3i8lkN5J,200,1, test, 5, 7, 3, 2, 4, 2, 4, 0.45, 0.65, left, 1, 0.35, 0.45, 0.55, 0.65, 1.2988083998207003, 0, 1.000000,60.000000,1.000000,6.000000,0.500000,1.000000
3i8lkN5J,200,1, test, 5, 7, 4, 3, 2, 2, 3, 0.55, 0.45, right, 2, 0.35, 0.45, 0.55, 0.65, 1.2676807001698762, 1, 2.000000,61.000000,1.000000,6.000000,0.500000,1.000000
3i8lkN5J,200,1, test, 5, 7, 5, 2, 4, 4, 2, 0.45, 0.65, right, 2, 0.35, 0.45, 0.55, 0.65, 0.9008243998978287, 1, 3.000000,62.000000,1.000000,6.000000,0.500000,1.000000
3i8lkN5J,200,1, test, 5, 7, 6, 1, 3, 3, 1, 0.35, 0.55, right, 2, 0.35, 0.45, 0.55, 0.65, 0.5704596000723541, 0, 3.000000,62.000000,1.000000,6.000000,0.500000,1.000000
3i8lkN5J,200,1, test, 5, 7, 7, 3, 4, 4, 3, 0.55, 0.65, right, 2, 0.35, 0.45, 0.55, 0.65, 0.7311356000136584, 0, 3.000000,62.000000,1.000000,6.000000,0.500000,1.000000
3i8lkN5J,200,1, test, 5, 7, 8, 3, 1, 3, 1, 0.55, 0.35, left, 1, 0.35, 0.45, 0.55, 0.65, 0.9395488000009209, 0, 3.000000,62.000000,1.000000,6.000000,0.500000,1.000000
3i8lkN5J,200,1, test, 5, 7, 9, 2, 3, 2, 3, 0.45, 0.55, left, 1, 0.35, 0.45, 0.55, 0.65, 0.789535199990496, 1, 4.000000,63.000000,1.000000,6.000000,0.500000,1.000000
3i8lkN5J,200,1, test, 5, 7, 10, 2, 1, 2, 1, 0.45, 0.35, left, 1, 0.35, 0.45, 0.55, 0.65, 0.4243768001906574, 1, 5.000000,64.000000,1.000000,6.000000,0.500000,1.000000
3i8lkN5J,200,1, test, 5, 7, 11, 2, 1, 2, 1, 0.45, 0.35, left, 1, 0.35, 0.45, 0.55, 0.65, 0.731118299998343, 0, 5.000000,64.000000,1.000000,6.000000,0.500000,1.000000
3i8lkN5J,200,1, test, 5, 7, 12, 2, 4, 4, 2, 0.45, 0.65, right, 2, 0.35, 0.45, 0.55, 0.65, 0.49073860002681613, 0, 5.000000,64.000000,1.000000,6.000000,0.500000,1.000000
3i8lkN5J,200,1, test, 5, 7, 13, 3, 1, 1, 3, 0.55, 0.35, right, 2, 0.35, 0.45, 0.55, 0.65, 0.20855890004895627, 1, 6.000000,65.000000,1.000000,6.000000,0.500000,1.000000
3i8lkN5J,200,1, test, 5, 7, 14, 4, 1, 4, 1, 0.65, 0.35, left, 1, 0.35, 0.45, 0.55, 0.65, 1.2278614998795092, 1, 7.000000,66.000000,1.000000,6.000000,0.500000,1.000000
3i8lkN5J,200,1, test, 5, 7, 15, 2, 1, 2, 1, 0.45, 0.35, left, 1, 0.35, 0.45, 0.55, 0.65, 0.9280672001186758, 0, 7.000000,66.000000,1.000000,6.000000,0.500000,1.000000
3i8lkN5J,200,1, test, 5, 7, 16, 3, 4, 4, 3, 0.55, 0.65, right, 2, 0.35, 0.45, 0.55, 0.65, 0.7410798999480903, 1, 8.000000,67.000000,1.000000,6.000000,0.500000,1.000000
3i8lkN5J,200,1, test, 5, 7, 17, 3, 4, 3, 4, 0.55, 0.65, left, 1, 0.35, 0.45, 0.55, 0.65, 0.5490055000409484, 0, 8.000000,67.000000,1.000000,6.000000,0.500000,1.000000
3i8lkN5J,200,1, test, 5, 7, 18, 3, 1, 3, 1, 0.55, 0.35, left, 1, 0.35, 0.45, 0.55, 0.65, 0.6875970000401139, 0, 8.000000,67.000000,1.000000,6.000000,0.500000,1.000000
3i8lkN5J,200,1, test, 5, 7, 19, 3, 2, 2, 3, 0.55, 0.45, right, 2, 0.35, 0.45, 0.55, 0.65, 1.0241884998977184, 1, 9.000000,68.000000,1.000000,6.000000,0.500000,1.000000
3i8lkN5J,200,1, test, 5, 7, 20, 2, 1, 1, 2, 0.45, 0.35, right, 2, 0.35, 0.45, 0.55, 0.65, 0.699260100023821, 0, 9.000000,68.000000,1.000000,6.000000,0.500000,1.000000
3i8lkN5J,200,1, test, 5, 7, 21, 2, 4, 4, 2, 0.45, 0.65, right, 2, 0.35, 0.45, 0.55, 0.65, 0.7456660999450833, 1, 10.000000,69.000000,1.000000,6.000000,0.500000,1.000000
3i8lkN5J,200,1, test, 5, 7, 22, 1, 4, 1, 4, 0.35, 0.65, left, 1, 0.35, 0.45, 0.55, 0.65, 0.899948799982667, 0, 10.000000,69.000000,1.000000,6.000000,0.500000,1.000000
3i8lkN5J,200,1, test, 5, 7, 23, 2, 3, 2, 3, 0.45, 0.55, left, 1, 0.35, 0.45, 0.55, 0.65, 1.135572199942544, 1, 11.000000,70.000000,1.000000,6.000000,0.500000,1.000000
3i8lkN5J,200,1, test, 5, 7, 24, 3, 1, 3, 1, 0.55, 0.35, left, 1, 0.35, 0.45, 0.55, 0.65, 0.7229118999093771, 1, 12.000000,71.000000,1.000000,6.000000,0.500000,1.000000
3i8lkN5J,200,1, test, 5, 7, 25, 3, 4, 3, 4, 0.55, 0.65, left, 1, 0.35, 0.45, 0.55, 0.65, 0.7836394999176264, 0, 12.000000,71.000000,1.000000,6.000000,0.500000,1.000000
3i8lkN5J,200,1, test, 6, 1, 1, 1, 4, 4, 1, 0.35, 0.65, right, 2, 0.35, 0.45, 0.55, 0.65, 0.6589687999803573, 0, 0.000000,71.000000,1.000000,6.000000,0.500000,1.000000
3i8lkN5J,200,1, test, 6, 1, 2, 2, 1, 2, 1, 0.45, 0.35, left, 1, 0.35, 0.45, 0.55, 0.65, 0.5294162000063807, 1, 1.000000,72.000000,1.000000,6.000000,0.500000,1.000000
3i8lkN5J,200,1, test, 6, 1, 3, 2, 1, 2, 1, 0.45, 0.35, left, 1, 0.35, 0.45, 0.55, 0.65, 0.9216686000581831, 0, 1.000000,72.000000,1.000000,6.000000,0.500000,1.000000
3i8lkN5J,200,1, test, 6, 1, 4, 4, 1, 1, 4, 0.65, 0.35, right, 2, 0.35, 0.45, 0.55, 0.65, 0.7564294999465346, 1, 2.000000,73.000000,1.000000,6.000000,0.500000,1.000000
3i8lkN5J,200,1, test, 6, 1, 5, 4, 3, 3, 4, 0.65, 0.55, right, 2, 0.35, 0.45, 0.55, 0.65, 0.5767130998428911, 1, 3.000000,74.000000,1.000000,6.000000,0.500000,1.000000
3i8lkN5J,200,1, test, 6, 1, 6, 2, 3, 3, 2, 0.45, 0.55, right, 2, 0.35, 0.45, 0.55, 0.65, 2.329036499839276, 0, 3.000000,74.000000,1.000000,6.000000,0.500000,1.000000
3i8lkN5J,200,1, test, 6, 1, 7, 4, 2, 4, 2, 0.65, 0.45, left, 1, 0.35, 0.45, 0.55, 0.65, 0.408119099913165, 0, 3.000000,74.000000,1.000000,6.000000,0.500000,1.000000
3i8lkN5J,200,1, test, 6, 1, 8, 2, 1, 2, 1, 0.45, 0.35, left, 1, 0.35, 0.45, 0.55, 0.65, 0.9293895000591874, 1, 4.000000,75.000000,1.000000,6.000000,0.500000,1.000000
3i8lkN5J,200,1, test, 6, 1, 9, 2, 3, 3, 2, 0.45, 0.55, right, 2, 0.35, 0.45, 0.55, 0.65, 1.4286523999180645, 1, 5.000000,76.000000,1.000000,6.000000,0.500000,1.000000
3i8lkN5J,200,1, test, 6, 1, 10, 4, 1, 1, 4, 0.65, 0.35, right, 2, 0.35, 0.45, 0.55, 0.65, 0.8939457999076694, 0, 5.000000,76.000000,1.000000,6.000000,0.500000,1.000000
3i8lkN5J,200,1, test, 6, 1, 11, 2, 1, 1, 2, 0.45, 0.35, right, 2, 0.35, 0.45, 0.55, 0.65, 0.6632574000395834, 1, 6.000000,77.000000,1.000000,6.000000,0.500000,1.000000
3i8lkN5J,200,1, test, 6, 1, 12, 2, 1, 2, 1, 0.45, 0.35, left, 1, 0.35, 0.45, 0.55, 0.65, 0.9237464000470936, 0, 6.000000,77.000000,1.000000,6.000000,0.500000,1.000000
3i8lkN5J,200,1, test, 6, 1, 13, 1, 3, 3, 1, 0.35, 0.55, right, 2, 0.35, 0.45, 0.55, 0.65, 0.931790699949488, 0, 6.000000,77.000000,1.000000,6.000000,0.500000,1.000000
3i8lkN5J,200,1, test, 6, 1, 14, 2, 1, 2, 1, 0.45, 0.35, left, 1, 0.35, 0.45, 0.55, 0.65, 0.7074290998280048, 0, 6.000000,77.000000,1.000000,6.000000,0.500000,1.000000
3i8lkN5J,200,1, test, 6, 1, 15, 3, 1, 1, 3, 0.55, 0.35, right, 2, 0.35, 0.45, 0.55, 0.65, 0.6924508998636156, 1, 7.000000,78.000000,1.000000,6.000000,0.500000,1.000000
3i8lkN5J,200,1, test, 6, 1, 16, 3, 1, 3, 1, 0.55, 0.35, left, 1, 0.35, 0.45, 0.55, 0.65, 0.5579981999471784, 0, 7.000000,78.000000,1.000000,6.000000,0.500000,1.000000
3i8lkN5J,200,1, test, 6, 1, 17, 4, 3, 4, 3, 0.65, 0.55, left, 1, 0.35, 0.45, 0.55, 0.65, 0.3363582999445498, 1, 8.000000,79.000000,1.000000,6.000000,0.500000,1.000000
3i8lkN5J,200,1, test, 6, 1, 18, 3, 1, 3, 1, 0.55, 0.35, left, 1, 0.35, 0.45, 0.55, 0.65, 1.1394682000391185, 0, 8.000000,79.000000,1.000000,6.000000,0.500000,1.000000
3i8lkN5J,200,1, test, 6, 1, 19, 2, 3, 2, 3, 0.45, 0.55, left, 1, 0.35, 0.45, 0.55, 0.65, 1.3874484999105334, 1, 9.000000,80.000000,1.000000,6.000000,0.500000,1.000000
3i8lkN5J,200,1, test, 6, 1, 20, 4, 1, 1, 4, 0.65, 0.35, right, 2, 0.35, 0.45, 0.55, 0.65, 0.5126706000883132, 0, 9.000000,80.000000,1.000000,6.000000,0.500000,1.000000
3i8lkN5J,200,1, test, 6, 1, 21, 2, 3, 3, 2, 0.45, 0.55, right, 2, 0.35, 0.45, 0.55, 0.65, 0.9961019000038505, 1, 10.000000,81.000000,1.000000,6.000000,0.500000,1.000000
3i8lkN5J,200,1, test, 6, 1, 22, 2, 1, 1, 2, 0.45, 0.35, right, 2, 0.35, 0.45, 0.55, 0.65, 0.6324422999750823, 1, 11.000000,82.000000,1.000000,6.000000,0.500000,1.000000
3i8lkN5J,200,1, test, 6, 1, 23, 4, 2, 2, 4, 0.65, 0.45, right, 2, 0.35, 0.45, 0.55, 0.65, 0.6570741999894381, 1, 12.000000,83.000000,1.000000,6.000000,0.500000,1.000000
3i8lkN5J,200,1, test, 6, 1, 24, 4, 1, 4, 1, 0.65, 0.35, left, 1, 0.35, 0.45, 0.55, 0.65, 0.5063910998869687, 0, 12.000000,83.000000,1.000000,6.000000,0.500000,1.000000
3i8lkN5J,200,1, test, 6, 1, 25, 3, 1, 1, 3, 0.55, 0.35, right, 2, 0.35, 0.45, 0.55, 0.65, 0.5311022999230772, 0, 12.000000,83.000000,1.000000,6.000000,0.500000,1.000000
3i8lkN5J,200,1, test, 7, 7, 1, 3, 4, 3, 4, 0.55, 0.65, left, 1, 0.35, 0.45, 0.55, 0.65, 1.5186218998860568, 0, 0.000000,83.000000,1.000000,6.000000,0.500000,1.000000
3i8lkN5J,200,1, test, 7, 7, 2, 2, 1, 1, 2, 0.45, 0.35, right, 2, 0.35, 0.45, 0.55, 0.65, 1.3026111000217497, 0, 0.000000,83.000000,1.000000,6.000000,0.500000,1.000000
3i8lkN5J,200,1, test, 7, 7, 3, 2, 3, 3, 2, 0.45, 0.55, right, 2, 0.35, 0.45, 0.55, 0.65, 1.0650182000827044, 0, 0.000000,83.000000,1.000000,6.000000,0.500000,1.000000
3i8lkN5J,200,1, test, 7, 7, 4, 4, 2, 4, 2, 0.65, 0.45, left, 1, 0.35, 0.45, 0.55, 0.65, 0.7344788000918925, 1, 1.000000,84.000000,1.000000,6.000000,0.500000,1.000000
3i8lkN5J,200,1, test, 7, 7, 5, 4, 2, 4, 2, 0.65, 0.45, left, 1, 0.35, 0.45, 0.55, 0.65, 0.3578321000095457, 1, 2.000000,85.000000,1.000000,6.000000,0.500000,1.000000
3i8lkN5J,200,1, test, 7, 7, 6, 3, 2, 3, 2, 0.55, 0.45, left, 1, 0.35, 0.45, 0.55, 0.65, 1.888037099968642, 0, 2.000000,85.000000,1.000000,6.000000,0.500000,1.000000
3i8lkN5J,200,1, test, 7, 7, 7, 1, 3, 3, 1, 0.35, 0.55, right, 2, 0.35, 0.45, 0.55, 0.65, 0.8541947000194341, 0, 2.000000,85.000000,1.000000,6.000000,0.500000,1.000000
3i8lkN5J,200,1, test, 7, 7, 8, 1, 2, 2, 1, 0.35, 0.45, right, 2, 0.35, 0.45, 0.55, 0.65, 0.6077272999100387, 1, 3.000000,86.000000,1.000000,6.000000,0.500000,1.000000
3i8lkN5J,200,1, test, 7, 7, 9, 3, 2, 2, 3, 0.55, 0.45, right, 2, 0.35, 0.45, 0.55, 0.65, 1.697264799848199, 1, 4.000000,87.000000,1.000000,6.000000,0.500000,1.000000
3i8lkN5J,200,1, test, 7, 7, 10, 4, 1, 4, 1, 0.65, 0.35, left, 1, 0.35, 0.45, 0.55, 0.65, 0.7967846000101417, 1, 5.000000,88.000000,1.000000,6.000000,0.500000,1.000000
3i8lkN5J,200,1, test, 7, 7, 11, 4, 2, 2, 4, 0.65, 0.45, right, 2, 0.35, 0.45, 0.55, 0.65, 0.9807400000281632, 0, 5.000000,88.000000,1.000000,6.000000,0.500000,1.000000
3i8lkN5J,200,1, test, 7, 7, 12, 4, 1, 4, 1, 0.65, 0.35, left, 1, 0.35, 0.45, 0.55, 0.65, 0.7470029001124203, 0, 5.000000,88.000000,1.000000,6.000000,0.500000,1.000000
3i8lkN5J,200,1, test, 7, 7, 13, 1, 3, 3, 1, 0.35, 0.55, right, 2, 0.35, 0.45, 0.55, 0.65, 1.0807233001105487, 1, 6.000000,89.000000,1.000000,6.000000,0.500000,1.000000
3i8lkN5J,200,1, test, 7, 7, 14, 4, 1, 4, 1, 0.65, 0.35, left, 1, 0.35, 0.45, 0.55, 0.65, 0.4428471000865102, 0, 6.000000,89.000000,1.000000,6.000000,0.500000,1.000000
3i8lkN5J,200,1, test, 7, 7, 15, 1, 3, 1, 3, 0.35, 0.55, left, 1, 0.35, 0.45, 0.55, 0.65, 0.7656211999710649, 1, 7.000000,90.000000,1.000000,6.000000,0.500000,1.000000
3i8lkN5J,200,1, test, 7, 7, 16, 4, 1, 1, 4, 0.65, 0.35, right, 2, 0.35, 0.45, 0.55, 0.65, 1.0690005000215024, 0, 7.000000,90.000000,1.000000,6.000000,0.500000,1.000000
3i8lkN5J,200,1, test, 7, 7, 17, 4, 3, 3, 4, 0.65, 0.55, right, 2, 0.35, 0.45, 0.55, 0.65, 0.6305160999763757, 1, 8.000000,91.000000,1.000000,6.000000,0.500000,1.000000
3i8lkN5J,200,1, test, 7, 7, 18, 4, 1, 4, 1, 0.65, 0.35, left, 1, 0.35, 0.45, 0.55, 0.65, 0.7295882001053542, 0, 8.000000,91.000000,1.000000,6.000000,0.500000,1.000000
3i8lkN5J,200,1, test, 7, 7, 19, 1, 2, 2, 1, 0.35, 0.45, right, 2, 0.35, 0.45, 0.55, 0.65, 1.0077724000439048, 0, 8.000000,91.000000,1.000000,6.000000,0.500000,1.000000
3i8lkN5J,200,1, test, 7, 7, 20, 4, 1, 1, 4, 0.65, 0.35, right, 2, 0.35, 0.45, 0.55, 0.65, 3.1367984998505563, 0, 8.000000,91.000000,1.000000,6.000000,0.500000,1.000000
3i8lkN5J,200,1, test, 7, 7, 21, 4, 3, 3, 4, 0.65, 0.55, right, 2, 0.35, 0.45, 0.55, 0.65, 0.749515000032261, 1, 9.000000,92.000000,1.000000,6.000000,0.500000,1.000000
3i8lkN5J,200,1, test, 7, 7, 22, 4, 1, 1, 4, 0.65, 0.35, right, 2, 0.35, 0.45, 0.55, 0.65, 0.6478502000682056, 1, 10.000000,93.000000,1.000000,6.000000,0.500000,1.000000
3i8lkN5J,200,1, test, 7, 7, 23, 1, 3, 1, 3, 0.35, 0.55, left, 1, 0.35, 0.45, 0.55, 0.65, 1.1265112000983208, 0, 10.000000,93.000000,1.000000,6.000000,0.500000,1.000000
3i8lkN5J,200,1, test, 7, 7, 24, 4, 3, 3, 4, 0.65, 0.55, right, 2, 0.35, 0.45, 0.55, 0.65, 0.6610791999846697, 1, 11.000000,94.000000,1.000000,6.000000,0.500000,1.000000
3i8lkN5J,200,1, test, 7, 7, 25, 4, 3, 3, 4, 0.65, 0.55, right, 2, 0.35, 0.45, 0.55, 0.65, 0.6561918000224978, 0, 11.000000,94.000000,1.000000,6.000000,0.500000,1.000000
3i8lkN5J,200,1, test, 8, 1, 1, 1, 3, 3, 1, 0.35, 0.55, right, 2, 0.35, 0.45, 0.55, 0.65, 1.732639699941501, 1, 1.000000,95.000000,1.000000,6.000000,0.500000,1.000000
3i8lkN5J,200,1, test, 8, 1, 2, 4, 3, 3, 4, 0.65, 0.55, right, 2, 0.35, 0.45, 0.55, 0.65, 0.912959799868986, 1, 2.000000,96.000000,1.000000,6.000000,0.500000,1.000000
3i8lkN5J,200,1, test, 8, 1, 3, 4, 3, 3, 4, 0.65, 0.55, right, 2, 0.35, 0.45, 0.55, 0.65, 0.992967400001362, 0, 2.000000,96.000000,1.000000,6.000000,0.500000,1.000000
3i8lkN5J,200,1, test, 8, 1, 4, 1, 3, 1, 3, 0.35, 0.55, left, 1, 0.35, 0.45, 0.55, 0.65, 0.6346438999753445, 0, 2.000000,96.000000,1.000000,6.000000,0.500000,1.000000
3i8lkN5J,200,1, test, 8, 1, 5, 4, 2, 2, 4, 0.65, 0.45, right, 2, 0.35, 0.45, 0.55, 0.65, 0.5642807998228818, 1, 3.000000,97.000000,1.000000,6.000000,0.500000,1.000000
3i8lkN5J,200,1, test, 8, 1, 6, 1, 3, 3, 1, 0.35, 0.55, right, 2, 0.35, 0.45, 0.55, 0.65, 1.287609700113535, 1, 4.000000,98.000000,1.000000,6.000000,0.500000,1.000000
3i8lkN5J,200,1, test, 8, 1, 7, 1, 3, 1, 3, 0.35, 0.55, left, 1, 0.35, 0.45, 0.55, 0.65, 0.6448385000694543, 0, 4.000000,98.000000,1.000000,6.000000,0.500000,1.000000
3i8lkN5J,200,1, test, 8, 1, 8, 4, 2, 4, 2, 0.65, 0.45, left, 1, 0.35, 0.45, 0.55, 0.65, 0.7321301999036223, 1, 5.000000,99.000000,1.000000,6.000000,0.500000,1.000000
3i8lkN5J,200,1, test, 8, 1, 9, 1, 2, 1, 2, 0.35, 0.45, left, 1, 0.35, 0.45, 0.55, 0.65, 0.8274766998365521, 0, 5.000000,99.000000,1.000000,6.000000,0.500000,1.000000
3i8lkN5J,200,1, test, 8, 1, 10, 4, 3, 4, 3, 0.65, 0.55, left, 1, 0.35, 0.45, 0.55, 0.65, 1.4472453000489622, 1, 6.000000,100.000000,1.000000,6.000000,0.500000,1.000000
3i8lkN5J,200,1, test, 8, 1, 11, 1, 4, 1, 4, 0.35, 0.65, left, 1, 0.35, 0.45, 0.55, 0.65, 0.7460390999913216, 0, 6.000000,100.000000,1.000000,6.000000,0.500000,1.000000
3i8lkN5J,200,1, test, 8, 1, 12, 4, 2, 4, 2, 0.65, 0.45, left, 1, 0.35, 0.45, 0.55, 0.65, 0.6755266000982374, 1, 7.000000,101.000000,1.000000,6.000000,0.500000,1.000000
3i8lkN5J,200,1, test, 8, 1, 13, 4, 2, 2, 4, 0.65, 0.45, right, 2, 0.35, 0.45, 0.55, 0.65, 0.931279200129211, 0, 7.000000,101.000000,1.000000,6.000000,0.500000,1.000000
3i8lkN5J,200,1, test, 8, 1, 14, 2, 3, 2, 3, 0.45, 0.55, left, 1, 0.35, 0.45, 0.55, 0.65, 1.653370999963954, 1, 8.000000,102.000000,1.000000,6.000000,0.500000,1.000000
3i8lkN5J,200,1, test, 8, 1, 15, 1, 2, 1, 2, 0.35, 0.45, left, 1, 0.35, 0.45, 0.55, 0.65, 0.8572565000504255, 0, 8.000000,102.000000,1.000000,6.000000,0.500000,1.000000
3i8lkN5J,200,1, test, 8, 1, 16, 2, 4, 4, 2, 0.45, 0.65, right, 2, 0.35, 0.45, 0.55, 0.65, 0.47199270012788475, 0, 8.000000,102.000000,1.000000,6.000000,0.500000,1.000000
3i8lkN5J,200,1, test, 8, 1, 17, 2, 3, 3, 2, 0.45, 0.55, right, 2, 0.35, 0.45, 0.55, 0.65, 0.8202484999783337, 0, 8.000000,102.000000,1.000000,6.000000,0.500000,1.000000
3i8lkN5J,200,1, test, 8, 1, 18, 1, 4, 4, 1, 0.35, 0.65, right, 2, 0.35, 0.45, 0.55, 0.65, 1.0087089000735432, 1, 9.000000,103.000000,1.000000,6.000000,0.500000,1.000000
3i8lkN5J,200,1, test, 8, 1, 19, 3, 4, 4, 3, 0.55, 0.65, right, 2, 0.35, 0.45, 0.55, 0.65, 0.6766287998761982, 1, 10.000000,104.000000,1.000000,6.000000,0.500000,1.000000
3i8lkN5J,200,1, test, 8, 1, 20, 2, 3, 3, 2, 0.45, 0.55, right, 2, 0.35, 0.45, 0.55, 0.65, 1.9841118999756873, 1, 11.000000,105.000000,1.000000,6.000000,0.500000,1.000000
3i8lkN5J,200,1, test, 8, 1, 21, 1, 2, 2, 1, 0.35, 0.45, right, 2, 0.35, 0.45, 0.55, 0.65, 1.185405199881643, 0, 11.000000,105.000000,1.000000,6.000000,0.500000,1.000000
3i8lkN5J,200,1, test, 8, 1, 22, 2, 1, 2, 1, 0.45, 0.35, left, 1, 0.35, 0.45, 0.55, 0.65, 1.9062191999983042, 1, 12.000000,106.000000,1.000000,6.000000,0.500000,1.000000
3i8lkN5J,200,1, test, 8, 1, 23, 4, 2, 4, 2, 0.65, 0.45, left, 1, 0.35, 0.45, 0.55, 0.65, 1.1987566000316292, 1, 13.000000,107.000000,1.000000,6.000000,0.500000,1.000000
3i8lkN5J,200,1, test, 8, 1, 24, 2, 3, 3, 2, 0.45, 0.55, right, 2, 0.35, 0.45, 0.55, 0.65, 1.3142101999837905, 0, 13.000000,107.000000,1.000000,6.000000,0.500000,1.000000
3i8lkN5J,200,1, test, 8, 1, 25, 2, 3, 2, 3, 0.45, 0.55, left, 1, 0.35, 0.45, 0.55, 0.65, 0.7420743000693619, 0, 13.000000,107.000000,1.000000,6.000000,0.500000,1.000000
