ShaharID, group, counterbalance, block_type, block, delay_condition, trial, chosen, unchosen, offer_left_image, offer_right_image, exp_value_chosen, exp_value_unchosen, choice_location, choice_key, exp_value1, exp_value2, exp_value3, exp_value4, RT, reward, coins_per_block, coins_per_task,ITI_duration,rt_deadline,choice_feedback_duration,outcome_duration
tronW3IO,200,1, practice, 1, 1, 1, 4, 3, 3, 4, 0.65, 0.55, right, 2, 0.35, 0.45, 0.55, 0.65, 0.5976588000012271, 1, 1.000000,1.000000,1.000000,6.000000,0.500000,1.000000
tronW3IO,200,1, practice, 1, 1, 2, 4, 1, 1, 4, 0.65, 0.35, right, 2, 0.35, 0.45, 0.55, 0.65, 0.6288954000010563, 1, 2.000000,2.000000,1.000000,6.000000,0.500000,1.000000
tronW3IO,200,1, practice, 1, 1, 3, 4, 1, 1, 4, 0.65, 0.35, right, 2, 0.35, 0.45, 0.55, 0.65, 0.44002700000055484, 0, 2.000000,2.000000,1.000000,6.000000,0.500000,1.000000
tronW3IO,200,1, practice, 1, 1, 4, 4, 3, 4, 3, 0.65, 0.55, left, 1, 0.35, 0.45, 0.55, 0.65, 0.666986000000179, 1, 3.000000,3.000000,1.000000,6.000000,0.500000,1.000000
tronW3IO,200,1, practice, 1, 1, 5, 3, 2, 2, 3, 0.55, 0.45, right, 2, 0.35, 0.45, 0.55, 0.65, 0.7989302999994834, 0, 3.000000,3.000000,1.000000,6.000000,0.500000,1.000000
tronW3IO,200,1, test, 1, 7, 1, 2, 4, 4, 2, 0.45, 0.65, right, 2, 0.35, 0.45, 0.55, 0.65, 0.5080937999991875, 0, 0.000000,3.000000,1.000000,6.000000,0.500000,1.000000
tronW3IO,200,1, test, 1, 7, 2, 2, 1, 1, 2, 0.45, 0.35, right, 2, 0.35, 0.45, 0.55, 0.65, 0.4546120000013616, 0, 0.000000,3.000000,1.000000,6.000000,0.500000,1.000000
tronW3IO,200,1, test, 1, 7, 3, 3, 2, 2, 3, 0.55, 0.45, right, 2, 0.35, 0.45, 0.55, 0.65, 0.5038740999989386, 1, 1.000000,4.000000,1.000000,6.000000,0.500000,1.000000
tronW3IO,200,1, test, 1, 7, 4, 1, 2, 2, 1, 0.35, 0.45, right, 2, 0.35, 0.45, 0.55, 0.65, 0.488034099998913, 1, 2.000000,5.000000,1.000000,6.000000,0.500000,1.000000
tronW3IO,200,1, test, 1, 7, 5, 1, 4, 4, 1, 0.35, 0.65, right, 2, 0.35, 0.45, 0.55, 0.65, 0.6020422000001417, 0, 2.000000,5.000000,1.000000,6.000000,0.500000,1.000000
tronW3IO,200,1, test, 1, 7, 6, 3, 4, 3, 4, 0.55, 0.65, left, 1, 0.35, 0.45, 0.55, 0.65, 0.5187599000018963, 0, 2.000000,5.000000,1.000000,6.000000,0.500000,1.000000
tronW3IO,200,1, test, 1, 7, 7, 4, 3, 3, 4, 0.65, 0.55, right, 2, 0.35, 0.45, 0.55, 0.65, 0.48643380000066827, 1, 3.000000,6.000000,1.000000,6.000000,0.500000,1.000000
tronW3IO,200,1, test, 1, 7, 8, 3, 2, 3, 2, 0.55, 0.45, left, 1, 0.35, 0.45, 0.55, 0.65, 1.0926365999985137, 1, 4.000000,7.000000,1.000000,6.000000,0.500000,1.000000
tronW3IO,200,1, test, 1, 7, 9, 4, 3, 3, 4, 0.65, 0.55, right, 2, 0.35, 0.45, 0.55, 0.65, 0.36239219999697525, 1, 5.000000,8.000000,1.000000,6.000000,0.500000,1.000000
tronW3IO,200,1, test, 1, 7, 10, 1, 2, 1, 2, 0.35, 0.45, left, 1, 0.35, 0.45, 0.55, 0.65, 0.9429072999992059, 0, 5.000000,8.000000,1.000000,6.000000,0.500000,1.000000
tronW3IO,200,1, test, 1, 7, 11, 4, 2, 4, 2, 0.65, 0.45, left, 1, 0.35, 0.45, 0.55, 0.65, 0.41005800000129966, 1, 6.000000,9.000000,1.000000,6.000000,0.500000,1.000000
tronW3IO,200,1, test, 1, 7, 12, 3, 1, 1, 3, 0.55, 0.35, right, 2, 0.35, 0.45, 0.55, 0.65, 1.00664119999783, 1, 7.000000,10.000000,1.000000,6.000000,0.500000,1.000000
tronW3IO,200,1, test, 1, 7, 13, 4, 1, 1, 4, 0.65, 0.35, right, 2, 0.35, 0.45, 0.55, 0.65, 0.4038681000020006, 0, 7.000000,10.000000,1.000000,6.000000,0.500000,1.000000
tronW3IO,200,1, test, 1, 7, 14, 4, 1, 1, 4, 0.65, 0.35, right, 2, 0.35, 0.45, 0.55, 0.65, 0.4767198000008648, 0, 7.000000,10.000000,1.000000,6.000000,0.500000,1.000000
tronW3IO,200,1, test, 1, 7, 15, 3, 2, 3, 2, 0.55, 0.45, left, 1, 0.35, 0.45, 0.55, 0.65, 0.3862898999977915, 1, 8.000000,11.000000,1.000000,6.000000,0.500000,1.000000
tronW3IO,200,1, test, 1, 7, 16, 1, 4, 1, 4, 0.35, 0.65, left, 1, 0.35, 0.45, 0.55, 0.65, 0.9759110000013607, 0, 8.000000,11.000000,1.000000,6.000000,0.500000,1.000000
tronW3IO,200,1, test, 1, 7, 17, 3, 1, 3, 1, 0.55, 0.35, left, 1, 0.35, 0.45, 0.55, 0.65, 0.744889300000068, 1, 9.000000,12.000000,1.000000,6.000000,0.500000,1.000000
tronW3IO,200,1, test, 1, 7, 18, 4, 2, 4, 2, 0.65, 0.45, left, 1, 0.35, 0.45, 0.55, 0.65, 0.6156240999989677, 1, 10.000000,13.000000,1.000000,6.000000,0.500000,1.000000
tronW3IO,200,1, test, 1, 7, 19, 4, 1, 1, 4, 0.65, 0.35, right, 2, 0.35, 0.45, 0.55, 0.65, 0.40011430000231485, 0, 10.000000,13.000000,1.000000,6.000000,0.500000,1.000000
tronW3IO,200,1, test, 1, 7, 20, 3, 1, 3, 1, 0.55, 0.35, left, 1, 0.35, 0.45, 0.55, 0.65, 0.3287817999989784, 1, 11.000000,14.000000,1.000000,6.000000,0.500000,1.000000
tronW3IO,200,1, test, 1, 7, 21, 3, 2, 2, 3, 0.55, 0.45, right, 2, 0.35, 0.45, 0.55, 0.65, 0.3259494000012637, 0, 11.000000,14.000000,1.000000,6.000000,0.500000,1.000000
tronW3IO,200,1, test, 1, 7, 22, 1, 3, 1, 3, 0.35, 0.55, left, 1, 0.35, 0.45, 0.55, 0.65, 1.2098608000014792, 0, 11.000000,14.000000,1.000000,6.000000,0.500000,1.000000
tronW3IO,200,1, test, 1, 7, 23, 3, 1, 3, 1, 0.55, 0.35, left, 1, 0.35, 0.45, 0.55, 0.65, 0.6900377999991179, 1, 12.000000,15.000000,1.000000,6.000000,0.500000,1.000000
tronW3IO,200,1, test, 1, 7, 24, 3, 4, 4, 3, 0.55, 0.65, right, 2, 0.35, 0.45, 0.55, 0.65, 0.479791000005207, 0, 12.000000,15.000000,1.000000,6.000000,0.500000,1.000000
tronW3IO,200,1, test, 1, 7, 25, 4, 3, 4, 3, 0.65, 0.55, left, 1, 0.35, 0.45, 0.55, 0.65, 0.5193015000040759, 1, 13.000000,16.000000,1.000000,6.000000,0.500000,1.000000
tronW3IO,200,1, test, 2, 1, 1, 2, 1, 1, 2, 0.45, 0.35, right, 2, 0.35, 0.45, 0.55, 0.65, 0.38348519999999553, 0, 0.000000,16.000000,1.000000,6.000000,0.500000,1.000000
tronW3IO,200,1, test, 2, 1, 2, 4, 2, 4, 2, 0.65, 0.45, left, 1, 0.35, 0.45, 0.55, 0.65, 0.5249646000011126, 0, 0.000000,16.000000,1.000000,6.000000,0.500000,1.000000
tronW3IO,200,1, test, 2, 1, 3, 3, 2, 3, 2, 0.55, 0.45, left, 1, 0.35, 0.45, 0.55, 0.65, 0.4655177000022377, 1, 1.000000,17.000000,1.000000,6.000000,0.500000,1.000000
tronW3IO,200,1, test, 2, 1, 4, 3, 2, 3, 2, 0.55, 0.45, left, 1, 0.35, 0.45, 0.55, 0.65, 0.4310079000060796, 0, 1.000000,17.000000,1.000000,6.000000,0.500000,1.000000
tronW3IO,200,1, test, 2, 1, 5, 1, 4, 1, 4, 0.35, 0.65, left, 1, 0.35, 0.45, 0.55, 0.65, 0.5023481999960495, 1, 2.000000,18.000000,1.000000,6.000000,0.500000,1.000000
tronW3IO,200,1, test, 2, 1, 6, 4, 1, 4, 1, 0.65, 0.35, left, 1, 0.35, 0.45, 0.55, 0.65, 0.802985100002843, 1, 3.000000,19.000000,1.000000,6.000000,0.500000,1.000000
tronW3IO,200,1, test, 2, 1, 7, 3, 1, 1, 3, 0.55, 0.35, right, 2, 0.35, 0.45, 0.55, 0.65, 0.36275819999718806, 1, 4.000000,20.000000,1.000000,6.000000,0.500000,1.000000
tronW3IO,200,1, test, 2, 1, 8, 3, 1, 1, 3, 0.55, 0.35, right, 2, 0.35, 0.45, 0.55, 0.65, 0.7617084000012255, 0, 4.000000,20.000000,1.000000,6.000000,0.500000,1.000000
tronW3IO,200,1, test, 2, 1, 9, 4, 2, 4, 2, 0.65, 0.45, left, 1, 0.35, 0.45, 0.55, 0.65, 0.37610770000173943, 0, 4.000000,20.000000,1.000000,6.000000,0.500000,1.000000
tronW3IO,200,1, test, 2, 1, 10, 1, 3, 3, 1, 0.35, 0.55, right, 2, 0.35, 0.45, 0.55, 0.65, 0.4943277999991551, 0, 4.000000,20.000000,1.000000,6.000000,0.500000,1.000000
tronW3IO,200,1, test, 2, 1, 11, 1, 2, 1, 2, 0.35, 0.45, left, 1, 0.35, 0.45, 0.55, 0.65, 0.291708099997777, 0, 4.000000,20.000000,1.000000,6.000000,0.500000,1.000000
tronW3IO,200,1, test, 2, 1, 12, 4, 3, 4, 3, 0.65, 0.55, left, 1, 0.35, 0.45, 0.55, 0.65, 0.6417516999936197, 0, 4.000000,20.000000,1.000000,6.000000,0.500000,1.000000
tronW3IO,200,1, test, 2, 1, 13, 1, 2, 2, 1, 0.35, 0.45, right, 2, 0.35, 0.45, 0.55, 0.65, 0.29116800000338117, 1, 5.000000,21.000000,1.000000,6.000000,0.500000,1.000000
tronW3IO,200,1, test, 2, 1, 14, 2, 4, 2, 4, 0.45, 0.65, left, 1, 0.35, 0.45, 0.55, 0.65, 0.5142266000038944, 0, 5.000000,21.000000,1.000000,6.000000,0.500000,1.000000
tronW3IO,200,1, test, 2, 1, 15, 3, 2, 3, 2, 0.55, 0.45, left, 1, 0.35, 0.45, 0.55, 0.65, 0.4605213000031654, 0, 5.000000,21.000000,1.000000,6.000000,0.500000,1.000000
tronW3IO,200,1, test, 2, 1, 16, 2, 1, 1, 2, 0.45, 0.35, right, 2, 0.35, 0.45, 0.55, 0.65, 0.3191048000007868, 0, 5.000000,21.000000,1.000000,6.000000,0.500000,1.000000
tronW3IO,200,1, test, 2, 1, 17, 1, 3, 1, 3, 0.35, 0.55, left, 1, 0.35, 0.45, 0.55, 0.65, 0.3120868999976665, 0, 5.000000,21.000000,1.000000,6.000000,0.500000,1.000000
tronW3IO,200,1, test, 2, 1, 18, 2, 3, 2, 3, 0.45, 0.55, left, 1, 0.35, 0.45, 0.55, 0.65, 0.6249172999960138, 1, 6.000000,22.000000,1.000000,6.000000,0.500000,1.000000
tronW3IO,200,1, test, 2, 1, 19, 4, 3, 4, 3, 0.65, 0.55, left, 1, 0.35, 0.45, 0.55, 0.65, 0.35275069999624975, 1, 7.000000,23.000000,1.000000,6.000000,0.500000,1.000000
tronW3IO,200,1, test, 2, 1, 20, 4, 3, 4, 3, 0.65, 0.55, left, 1, 0.35, 0.45, 0.55, 0.65, 0.3078748000043561, 1, 8.000000,24.000000,1.000000,6.000000,0.500000,1.000000
tronW3IO,200,1, test, 2, 1, 21, 1, 2, 2, 1, 0.35, 0.45, right, 2, 0.35, 0.45, 0.55, 0.65, 0.556799999998475, 0, 8.000000,24.000000,1.000000,6.000000,0.500000,1.000000
tronW3IO,200,1, test, 2, 1, 22, 4, 2, 4, 2, 0.65, 0.45, left, 1, 0.35, 0.45, 0.55, 0.65, 0.350830200004566, 1, 9.000000,25.000000,1.000000,6.000000,0.500000,1.000000
tronW3IO,200,1, test, 2, 1, 23, 3, 1, 1, 3, 0.55, 0.35, right, 2, 0.35, 0.45, 0.55, 0.65, 0.6188871999984258, 1, 10.000000,26.000000,1.000000,6.000000,0.500000,1.000000
tronW3IO,200,1, test, 2, 1, 24, 4, 2, 4, 2, 0.65, 0.45, left, 1, 0.35, 0.45, 0.55, 0.65, 0.31712319999496685, 0, 10.000000,26.000000,1.000000,6.000000,0.500000,1.000000
tronW3IO,200,1, test, 2, 1, 25, 1, 3, 1, 3, 0.35, 0.55, left, 1, 0.35, 0.45, 0.55, 0.65, 0.3608315000019502, 1, 11.000000,27.000000,1.000000,6.000000,0.500000,1.000000
tronW3IO,200,1, test, 3, 7, 1, 3, 2, 3, 2, 0.55, 0.45, left, 1, 0.35, 0.45, 0.55, 0.65, 0.4656998999998905, 1, 1.000000,28.000000,1.000000,6.000000,0.500000,1.000000
tronW3IO,200,1, test, 3, 7, 2, 3, 2, 2, 3, 0.55, 0.45, right, 2, 0.35, 0.45, 0.55, 0.65, 0.4796392999996897, 0, 1.000000,28.000000,1.000000,6.000000,0.500000,1.000000
tronW3IO,200,1, test, 3, 7, 3, 1, 2, 1, 2, 0.35, 0.45, left, 1, 0.35, 0.45, 0.55, 0.65, 1.1620918000044185, 0, 1.000000,28.000000,1.000000,6.000000,0.500000,1.000000
tronW3IO,200,1, test, 3, 7, 4, 3, 1, 3, 1, 0.55, 0.35, left, 1, 0.35, 0.45, 0.55, 0.65, 0.7105550000051153, 0, 1.000000,28.000000,1.000000,6.000000,0.500000,1.000000
tronW3IO,200,1, test, 3, 7, 5, 2, 1, 1, 2, 0.45, 0.35, right, 2, 0.35, 0.45, 0.55, 0.65, 0.5671605999959866, 0, 1.000000,28.000000,1.000000,6.000000,0.500000,1.000000
tronW3IO,200,1, test, 3, 7, 6, 4, 1, 1, 4, 0.65, 0.35, right, 2, 0.35, 0.45, 0.55, 0.65, 0.5299780999994255, 1, 2.000000,29.000000,1.000000,6.000000,0.500000,1.000000
tronW3IO,200,1, test, 3, 7, 7, 3, 2, 3, 2, 0.55, 0.45, left, 1, 0.35, 0.45, 0.55, 0.65, 1.2332801000011386, 1, 3.000000,30.000000,1.000000,6.000000,0.500000,1.000000
tronW3IO,200,1, test, 3, 7, 8, 4, 2, 4, 2, 0.65, 0.45, left, 1, 0.35, 0.45, 0.55, 0.65, 0.4487908000010066, 0, 3.000000,30.000000,1.000000,6.000000,0.500000,1.000000
tronW3IO,200,1, test, 3, 7, 9, 1, 3, 3, 1, 0.35, 0.55, right, 2, 0.35, 0.45, 0.55, 0.65, 0.9152125000036904, 1, 4.000000,31.000000,1.000000,6.000000,0.500000,1.000000
tronW3IO,200,1, test, 3, 7, 10, 2, 4, 2, 4, 0.45, 0.65, left, 1, 0.35, 0.45, 0.55, 0.65, 0.9190074999933131, 1, 5.000000,32.000000,1.000000,6.000000,0.500000,1.000000
tronW3IO,200,1, test, 3, 7, 11, 2, 4, 2, 4, 0.45, 0.65, left, 1, 0.35, 0.45, 0.55, 0.65, 0.3712158999987878, 1, 6.000000,33.000000,1.000000,6.000000,0.500000,1.000000
tronW3IO,200,1, test, 3, 7, 12, 2, 3, 3, 2, 0.45, 0.55, right, 2, 0.35, 0.45, 0.55, 0.65, 0.3532950000007986, 1, 7.000000,34.000000,1.000000,6.000000,0.500000,1.000000
tronW3IO,200,1, test, 3, 7, 13, 2, 1, 2, 1, 0.45, 0.35, left, 1, 0.35, 0.45, 0.55, 0.65, 0.4267418999952497, 1, 8.000000,35.000000,1.000000,6.000000,0.500000,1.000000
tronW3IO,200,1, test, 3, 7, 14, 4, 1, 1, 4, 0.65, 0.35, right, 2, 0.35, 0.45, 0.55, 0.65, 0.6798804999998538, 1, 9.000000,36.000000,1.000000,6.000000,0.500000,1.000000
tronW3IO,200,1, test, 3, 7, 15, 4, 3, 3, 4, 0.65, 0.55, right, 2, 0.35, 0.45, 0.55, 0.65, 0.39615979999507545, 0, 9.000000,36.000000,1.000000,6.000000,0.500000,1.000000
tronW3IO,200,1, test, 3, 7, 16, 2, 4, 4, 2, 0.45, 0.65, right, 2, 0.35, 0.45, 0.55, 0.65, 0.35810749999654945, 0, 9.000000,36.000000,1.000000,6.000000,0.500000,1.000000
tronW3IO,200,1, test, 3, 7, 17, 4, 1, 1, 4, 0.65, 0.35, right, 2, 0.35, 0.45, 0.55, 0.65, 0.6770162999964668, 0, 9.000000,36.000000,1.000000,6.000000,0.500000,1.000000
tronW3IO,200,1, test, 3, 7, 18, 3, 4, 4, 3, 0.55, 0.65, right, 2, 0.35, 0.45, 0.55, 0.65, 0.421499700001732, 0, 9.000000,36.000000,1.000000,6.000000,0.500000,1.000000
tronW3IO,200,1, test, 3, 7, 19, 2, 1, 2, 1, 0.45, 0.35, left, 1, 0.35, 0.45, 0.55, 0.65, 0.41473430000041844, 0, 9.000000,36.000000,1.000000,6.000000,0.500000,1.000000
tronW3IO,200,1, test, 3, 7, 20, 4, 3, 3, 4, 0.65, 0.55, right, 2, 0.35, 0.45, 0.55, 0.65, 0.5018093000035151, 1, 10.000000,37.000000,1.000000,6.000000,0.500000,1.000000
tronW3IO,200,1, test, 3, 7, 21, 4, 1, 1, 4, 0.65, 0.35, right, 2, 0.35, 0.45, 0.55, 0.65, 0.3696899000060512, 1, 11.000000,38.000000,1.000000,6.000000,0.500000,1.000000
tronW3IO,200,1, test, 3, 7, 22, 2, 4, 4, 2, 0.45, 0.65, right, 2, 0.35, 0.45, 0.55, 0.65, 0.3243822000004002, 0, 11.000000,38.000000,1.000000,6.000000,0.500000,1.000000
tronW3IO,200,1, test, 3, 7, 23, 4, 1, 1, 4, 0.65, 0.35, right, 2, 0.35, 0.45, 0.55, 0.65, 0.3526315999988583, 0, 11.000000,38.000000,1.000000,6.000000,0.500000,1.000000
tronW3IO,200,1, test, 3, 7, 24, 2, 4, 4, 2, 0.45, 0.65, right, 2, 0.35, 0.45, 0.55, 0.65, 0.36155430000508204, 0, 11.000000,38.000000,1.000000,6.000000,0.500000,1.000000
tronW3IO,200,1, test, 3, 7, 25, 3, 1, 1, 3, 0.55, 0.35, right, 2, 0.35, 0.45, 0.55, 0.65, 0.9081051999964984, 1, 12.000000,39.000000,1.000000,6.000000,0.500000,1.000000
tronW3IO,200,1, test, 4, 1, 1, 1, 2, 1, 2, 0.35, 0.45, left, 1, 0.35, 0.45, 0.55, 0.65, 0.31420079999952577, 0, 0.000000,39.000000,1.000000,6.000000,0.500000,1.000000
tronW3IO,200,1, test, 4, 1, 2, 3, 2, 3, 2, 0.55, 0.45, left, 1, 0.35, 0.45, 0.55, 0.65, 0.4901739999986603, 0, 0.000000,39.000000,1.000000,6.000000,0.500000,1.000000
tronW3IO,200,1, test, 4, 1, 3, 1, 3, 1, 3, 0.35, 0.55, left, 1, 0.35, 0.45, 0.55, 0.65, 0.535552599998482, 1, 1.000000,40.000000,1.000000,6.000000,0.500000,1.000000
tronW3IO,200,1, test, 4, 1, 4, 4, 2, 2, 4, 0.65, 0.45, right, 2, 0.35, 0.45, 0.55, 0.65, 0.5106260000029579, 1, 2.000000,41.000000,1.000000,6.000000,0.500000,1.000000
tronW3IO,200,1, test, 4, 1, 5, 1, 2, 1, 2, 0.35, 0.45, left, 1, 0.35, 0.45, 0.55, 0.65, 0.4508083000037004, 0, 2.000000,41.000000,1.000000,6.000000,0.500000,1.000000
tronW3IO,200,1, test, 4, 1, 6, 2, 1, 2, 1, 0.45, 0.35, left, 1, 0.35, 0.45, 0.55, 0.65, 0.33349550000275485, 0, 2.000000,41.000000,1.000000,6.000000,0.500000,1.000000
tronW3IO,200,1, test, 4, 1, 7, 4, 3, 4, 3, 0.65, 0.55, left, 1, 0.35, 0.45, 0.55, 0.65, 0.5448422000044957, 1, 3.000000,42.000000,1.000000,6.000000,0.500000,1.000000
tronW3IO,200,1, test, 4, 1, 8, 4, 3, 3, 4, 0.65, 0.55, right, 2, 0.35, 0.45, 0.55, 0.65, 0.5115130000049248, 0, 3.000000,42.000000,1.000000,6.000000,0.500000,1.000000
tronW3IO,200,1, test, 4, 1, 9, 4, 2, 2, 4, 0.65, 0.45, right, 2, 0.35, 0.45, 0.55, 0.65, 0.3335758999965037, 1, 4.000000,43.000000,1.000000,6.000000,0.500000,1.000000
tronW3IO,200,1, test, 4, 1, 10, 4, 2, 4, 2, 0.65, 0.45, left, 1, 0.35, 0.45, 0.55, 0.65, 0.32456610000372166, 1, 5.000000,44.000000,1.000000,6.000000,0.500000,1.000000
tronW3IO,200,1, test, 4, 1, 11, 4, 3, 3, 4, 0.65, 0.55, right, 2, 0.35, 0.45, 0.55, 0.65, 0.31237870000040857, 1, 6.000000,45.000000,1.000000,6.000000,0.500000,1.000000
tronW3IO,200,1, test, 4, 1, 12, 4, 2, 2, 4, 0.65, 0.45, right, 2, 0.35, 0.45, 0.55, 0.65, 0.3015268999952241, 0, 6.000000,45.000000,1.000000,6.000000,0.500000,1.000000
tronW3IO,200,1, test, 4, 1, 13, 4, 3, 4, 3, 0.65, 0.55, left, 1, 0.35, 0.45, 0.55, 0.65, 0.3174986000012723, 1, 7.000000,46.000000,1.000000,6.000000,0.500000,1.000000
tronW3IO,200,1, test, 4, 1, 14, 4, 2, 4, 2, 0.65, 0.45, left, 1, 0.35, 0.45, 0.55, 0.65, 0.3287287999992259, 1, 8.000000,47.000000,1.000000,6.000000,0.500000,1.000000
tronW3IO,200,1, test, 4, 1, 15, 1, 2, 1, 2, 0.35, 0.45, left, 1, 0.35, 0.45, 0.55, 0.65, 0.5894468000042252, 0, 8.000000,47.000000,1.000000,6.000000,0.500000,1.000000
tronW3IO,200,1, test, 4, 1, 16, 3, 2, 3, 2, 0.55, 0.45, left, 1, 0.35, 0.45, 0.55, 0.65, 0.5544445000050473, 1, 9.000000,48.000000,1.000000,6.000000,0.500000,1.000000
tronW3IO,200,1, test, 4, 1, 17, 1, 3, 3, 1, 0.35, 0.55, right, 2, 0.35, 0.45, 0.55, 0.65, 0.45777410000300733, 0, 9.000000,48.000000,1.000000,6.000000,0.500000,1.000000
tronW3IO,200,1, test, 4, 1, 18, 3, 1, 1, 3, 0.55, 0.35, right, 2, 0.35, 0.45, 0.55, 0.65, 0.34803820000524865, 0, 9.000000,48.000000,1.000000,6.000000,0.500000,1.000000
tronW3IO,200,1, test, 4, 1, 19, 4, 3, 3, 4, 0.65, 0.55, right, 2, 0.35, 0.45, 0.55, 0.65, 0.31775780000316445, 1, 10.000000,49.000000,1.000000,6.000000,0.500000,1.000000
tronW3IO,200,1, test, 4, 1, 20, 1, 3, 1, 3, 0.35, 0.55, left, 1, 0.35, 0.45, 0.55, 0.65, 0.48140089999651536, 0, 10.000000,49.000000,1.000000,6.000000,0.500000,1.000000
tronW3IO,200,1, test, 4, 1, 21, 2, 1, 1, 2, 0.45, 0.35, right, 2, 0.35, 0.45, 0.55, 0.65, 0.7961719000013545, 1, 11.000000,50.000000,1.000000,6.000000,0.500000,1.000000
tronW3IO,200,1, test, 4, 1, 22, 2, 3, 3, 2, 0.45, 0.55, right, 2, 0.35, 0.45, 0.55, 0.65, 0.4004365000000689, 0, 11.000000,50.000000,1.000000,6.000000,0.500000,1.000000
tronW3IO,200,1, test, 4, 1, 23, 4, 1, 4, 1, 0.65, 0.35, left, 1, 0.35, 0.45, 0.55, 0.65, 0.3811086999994586, 1, 12.000000,51.000000,1.000000,6.000000,0.500000,1.000000
tronW3IO,200,1, test, 4, 1, 24, 3, 1, 1, 3, 0.55, 0.35, right, 2, 0.35, 0.45, 0.55, 0.65, 0.6948055000029854, 1, 13.000000,52.000000,1.000000,6.000000,0.500000,1.000000
tronW3IO,200,1, test, 4, 1, 25, 2, 1, 2, 1, 0.45, 0.35, left, 1, 0.35, 0.45, 0.55, 0.65, 0.8587023000000045, 0, 13.000000,52.000000,1.000000,6.000000,0.500000,1.000000
tronW3IO,200,1, test, 5, 7, 1, 1, 2, 2, 1, 0.35, 0.45, right, 2, 0.35, 0.45, 0.55, 0.65, 0.4112639000013587, 0, 0.000000,52.000000,1.000000,6.000000,0.500000,1.000000
tronW3IO,200,1, test, 5, 7, 2, 1, 2, 1, 2, 0.35, 0.45, left, 1, 0.35, 0.45, 0.55, 0.65, 0.52088690000528, 1, 1.000000,53.000000,1.000000,6.000000,0.500000,1.000000
tronW3IO,200,1, test, 5, 7, 3, 1, 3, 1, 3, 0.35, 0.55, left, 1, 0.35, 0.45, 0.55, 0.65, 0.4533265999998548, 0, 1.000000,53.000000,1.000000,6.000000,0.500000,1.000000
tronW3IO,200,1, test, 5, 7, 4, 2, 1, 1, 2, 0.45, 0.35, right, 2, 0.35, 0.45, 0.55, 0.65, 1.0562775999933365, 1, 2.000000,54.000000,1.000000,6.000000,0.500000,1.000000
tronW3IO,200,1, test, 5, 7, 5, 3, 1, 3, 1, 0.55, 0.35, left, 1, 0.35, 0.45, 0.55, 0.65, 1.01021810000384, 0, 2.000000,54.000000,1.000000,6.000000,0.500000,1.000000
tronW3IO,200,1, test, 5, 7, 6, 1, 2, 1, 2, 0.35, 0.45, left, 1, 0.35, 0.45, 0.55, 0.65, 1.2870631999976467, 0, 2.000000,54.000000,1.000000,6.000000,0.500000,1.000000
tronW3IO,200,1, test, 5, 7, 7, 2, 1, 1, 2, 0.45, 0.35, right, 2, 0.35, 0.45, 0.55, 0.65, 0.3479330999980448, 0, 2.000000,54.000000,1.000000,6.000000,0.500000,1.000000
tronW3IO,200,1, test, 5, 7, 8, 4, 3, 4, 3, 0.65, 0.55, left, 1, 0.35, 0.45, 0.55, 0.65, 0.878537900003721, 1, 3.000000,55.000000,1.000000,6.000000,0.500000,1.000000
tronW3IO,200,1, test, 5, 7, 9, 2, 1, 1, 2, 0.45, 0.35, right, 2, 0.35, 0.45, 0.55, 0.65, 2.2452230999988387, 1, 4.000000,56.000000,1.000000,6.000000,0.500000,1.000000
tronW3IO,200,1, test, 5, 7, 10, 2, 3, 3, 2, 0.45, 0.55, right, 2, 0.35, 0.45, 0.55, 0.65, 0.8359541000027093, 0, 4.000000,56.000000,1.000000,6.000000,0.500000,1.000000
tronW3IO,200,1, test, 5, 7, 11, 4, 1, 1, 4, 0.65, 0.35, right, 2, 0.35, 0.45, 0.55, 0.65, 0.3671581000016886, 1, 5.000000,57.000000,1.000000,6.000000,0.500000,1.000000
tronW3IO,200,1, test, 5, 7, 12, 4, 3, 3, 4, 0.65, 0.55, right, 2, 0.35, 0.45, 0.55, 0.65, 0.36094170000433223, 1, 6.000000,58.000000,1.000000,6.000000,0.500000,1.000000
tronW3IO,200,1, test, 5, 7, 13, 2, 1, 1, 2, 0.45, 0.35, right, 2, 0.35, 0.45, 0.55, 0.65, 1.095030799995584, 0, 6.000000,58.000000,1.000000,6.000000,0.500000,1.000000
tronW3IO,200,1, test, 5, 7, 14, 4, 1, 4, 1, 0.65, 0.35, left, 1, 0.35, 0.45, 0.55, 0.65, 0.36382460000459105, 0, 6.000000,58.000000,1.000000,6.000000,0.500000,1.000000
tronW3IO,200,1, test, 5, 7, 15, 3, 1, 1, 3, 0.55, 0.35, right, 2, 0.35, 0.45, 0.55, 0.65, 0.9139816999959294, 1, 7.000000,59.000000,1.000000,6.000000,0.500000,1.000000
tronW3IO,200,1, test, 5, 7, 16, 4, 2, 4, 2, 0.65, 0.45, left, 1, 0.35, 0.45, 0.55, 0.65, 0.5109335000015562, 0, 7.000000,59.000000,1.000000,6.000000,0.500000,1.000000
tronW3IO,200,1, test, 5, 7, 17, 2, 1, 2, 1, 0.45, 0.35, left, 1, 0.35, 0.45, 0.55, 0.65, 0.8547054000009666, 0, 7.000000,59.000000,1.000000,6.000000,0.500000,1.000000
tronW3IO,200,1, test, 5, 7, 18, 4, 3, 3, 4, 0.65, 0.55, right, 2, 0.35, 0.45, 0.55, 0.65, 0.5049584000007599, 0, 7.000000,59.000000,1.000000,6.000000,0.500000,1.000000
tronW3IO,200,1, test, 5, 7, 19, 3, 4, 4, 3, 0.55, 0.65, right, 2, 0.35, 0.45, 0.55, 0.65, 0.850518600003852, 1, 8.000000,60.000000,1.000000,6.000000,0.500000,1.000000
tronW3IO,200,1, test, 5, 7, 20, 2, 1, 2, 1, 0.45, 0.35, left, 1, 0.35, 0.45, 0.55, 0.65, 1.2078736999974353, 0, 8.000000,60.000000,1.000000,6.000000,0.500000,1.000000
tronW3IO,200,1, test, 5, 7, 21, 1, 2, 2, 1, 0.35, 0.45, right, 2, 0.35, 0.45, 0.55, 0.65, 1.358296499995049, 1, 9.000000,61.000000,1.000000,6.000000,0.500000,1.000000
tronW3IO,200,1, test, 5, 7, 22, 2, 4, 4, 2, 0.45, 0.65, right, 2, 0.35, 0.45, 0.55, 0.65, 1.3406749999994645, 1, 10.000000,62.000000,1.000000,6.000000,0.500000,1.000000
tronW3IO,200,1, test, 5, 7, 23, 2, 4, 2, 4, 0.45, 0.65, left, 1, 0.35, 0.45, 0.55, 0.65, 1.8802304999990156, 0, 10.000000,62.000000,1.000000,6.000000,0.500000,1.000000
tronW3IO,200,1, test, 5, 7, 24, 1, 4, 4, 1, 0.35, 0.65, right, 2, 0.35, 0.45, 0.55, 0.65, 1.3291514000011375, 0, 10.000000,62.000000,1.000000,6.000000,0.500000,1.000000
tronW3IO,200,1, test, 5, 7, 25, 3, 2, 2, 3, 0.55, 0.45, right, 2, 0.35, 0.45, 0.55, 0.65, 1.67226639999717, 0, 10.000000,62.000000,1.000000,6.000000,0.500000,1.000000
tronW3IO,200,1, test, 6, 1, 1, 2, 4, 4, 2, 0.45, 0.65, right, 2, 0.35, 0.45, 0.55, 0.65, 0.34716389999812236, 0, 0.000000,62.000000,1.000000,6.000000,0.500000,1.000000
tronW3IO,200,1, test, 6, 1, 2, 1, 4, 4, 1, 0.35, 0.65, right, 2, 0.35, 0.45, 0.55, 0.65, 0.6203323000008822, 0, 0.000000,62.000000,1.000000,6.000000,0.500000,1.000000
tronW3IO,200,1, test, 6, 1, 3, 1, 2, 1, 2, 0.35, 0.45, left, 1, 0.35, 0.45, 0.55, 0.65, 1.0963161000036052, 0, 0.000000,62.000000,1.000000,6.000000,0.500000,1.000000
tronW3IO,200,1, test, 6, 1, 4, 4, 2, 2, 4, 0.65, 0.45, right, 2, 0.35, 0.45, 0.55, 0.65, 0.9105044000025373, 1, 1.000000,63.000000,1.000000,6.000000,0.500000,1.000000
tronW3IO,200,1, test, 6, 1, 5, 3, 2, 3, 2, 0.55, 0.45, left, 1, 0.35, 0.45, 0.55, 0.65, 0.5780887000000803, 1, 2.000000,64.000000,1.000000,6.000000,0.500000,1.000000
tronW3IO,200,1, test, 6, 1, 6, 4, 2, 2, 4, 0.65, 0.45, right, 2, 0.35, 0.45, 0.55, 0.65, 0.7837613000010606, 0, 2.000000,64.000000,1.000000,6.000000,0.500000,1.000000
tronW3IO,200,1, test, 6, 1, 7, 3, 2, 2, 3, 0.55, 0.45, right, 2, 0.35, 0.45, 0.55, 0.65, 0.31061690000206, 0, 2.000000,64.000000,1.000000,6.000000,0.500000,1.000000
tronW3IO,200,1, test, 6, 1, 8, 2, 4, 4, 2, 0.45, 0.65, right, 2, 0.35, 0.45, 0.55, 0.65, 0.3857932000028086, 0, 2.000000,64.000000,1.000000,6.000000,0.500000,1.000000
tronW3IO,200,1, test, 6, 1, 9, 3, 1, 3, 1, 0.55, 0.35, left, 1, 0.35, 0.45, 0.55, 0.65, 0.5279945000002044, 1, 3.000000,65.000000,1.000000,6.000000,0.500000,1.000000
tronW3IO,200,1, test, 6, 1, 10, 3, 2, 2, 3, 0.55, 0.45, right, 2, 0.35, 0.45, 0.55, 0.65, 0.36752540000452427, 1, 4.000000,66.000000,1.000000,6.000000,0.500000,1.000000
tronW3IO,200,1, test, 6, 1, 11, 4, 2, 4, 2, 0.65, 0.45, left, 1, 0.35, 0.45, 0.55, 0.65, 0.9901326000035624, 1, 5.000000,67.000000,1.000000,6.000000,0.500000,1.000000
tronW3IO,200,1, test, 6, 1, 12, 1, 3, 3, 1, 0.35, 0.55, right, 2, 0.35, 0.45, 0.55, 0.65, 0.782647399995767, 0, 5.000000,67.000000,1.000000,6.000000,0.500000,1.000000
tronW3IO,200,1, test, 6, 1, 13, 3, 4, 4, 3, 0.55, 0.65, right, 2, 0.35, 0.45, 0.55, 0.65, 0.34764200000063283, 0, 5.000000,67.000000,1.000000,6.000000,0.500000,1.000000
tronW3IO,200,1, test, 6, 1, 14, 4, 1, 1, 4, 0.65, 0.35, right, 2, 0.35, 0.45, 0.55, 0.65, 0.35034230000019306, 1, 6.000000,68.000000,1.000000,6.000000,0.500000,1.000000
tronW3IO,200,1, test, 6, 1, 15, 4, 1, 4, 1, 0.65, 0.35, left, 1, 0.35, 0.45, 0.55, 0.65, 0.34521379999932833, 1, 7.000000,69.000000,1.000000,6.000000,0.500000,1.000000
tronW3IO,200,1, test, 6, 1, 16, 4, 1, 1, 4, 0.65, 0.35, right, 2, 0.35, 0.45, 0.55, 0.65, 0.3002439999982016, 0, 7.000000,69.000000,1.000000,6.000000,0.500000,1.000000
tronW3IO,200,1, test, 6, 1, 17, 2, 1, 2, 1, 0.45, 0.35, left, 1, 0.35, 0.45, 0.55, 0.65, 0.674937099996896, 1, 8.000000,70.000000,1.000000,6.000000,0.500000,1.000000
tronW3IO,200,1, test, 6, 1, 18, 2, 3, 2, 3, 0.45, 0.55, left, 1, 0.35, 0.45, 0.55, 0.65, 0.37604700000520097, 0, 8.000000,70.000000,1.000000,6.000000,0.500000,1.000000
tronW3IO,200,1, test, 6, 1, 19, 2, 3, 3, 2, 0.45, 0.55, right, 2, 0.35, 0.45, 0.55, 0.65, 0.42676829999982147, 0, 8.000000,70.000000,1.000000,6.000000,0.500000,1.000000
tronW3IO,200,1, test, 6, 1, 20, 3, 2, 2, 3, 0.55, 0.45, right, 2, 0.35, 0.45, 0.55, 0.65, 0.7730128999974113, 1, 9.000000,71.000000,1.000000,6.000000,0.500000,1.000000
tronW3IO,200,1, test, 6, 1, 21, 1, 2, 1, 2, 0.35, 0.45, left, 1, 0.35, 0.45, 0.55, 0.65, 0.7161207000026479, 0, 9.000000,71.000000,1.000000,6.000000,0.500000,1.000000
tronW3IO,200,1, test, 6, 1, 22, 4, 3, 4, 3, 0.65, 0.55, left, 1, 0.35, 0.45, 0.55, 0.65, 0.6359422000023187, 1, 10.000000,72.000000,1.000000,6.000000,0.500000,1.000000
tronW3IO,200,1, test, 6, 1, 23, 3, 1, 3, 1, 0.55, 0.35, left, 1, 0.35, 0.45, 0.55, 0.65, 0.7309829000005266, 1, 11.000000,73.000000,1.000000,6.000000,0.500000,1.000000
tronW3IO,200,1, test, 6, 1, 24, 3, 2, 2, 3, 0.55, 0.45, right, 2, 0.35, 0.45, 0.55, 0.65, 0.6500971000059508, 1, 12.000000,74.000000,1.000000,6.000000,0.500000,1.000000
tronW3IO,200,1, test, 6, 1, 25, 3, 1, 1, 3, 0.55, 0.35, right, 2, 0.35, 0.45, 0.55, 0.65, 0.3364660000006552, 0, 12.000000,74.000000,1.000000,6.000000,0.500000,1.000000
tronW3IO,200,1, test, 7, 7, 1, 4, 3, 3, 4, 0.65, 0.55, right, 2, 0.35, 0.45, 0.55, 0.65, 0.35804920000373386, 1, 1.000000,75.000000,1.000000,6.000000,0.500000,1.000000
tronW3IO,200,1, test, 7, 7, 2, 1, 2, 2, 1, 0.35, 0.45, right, 2, 0.35, 0.45, 0.55, 0.65, 0.6043511000025319, 0, 1.000000,75.000000,1.000000,6.000000,0.500000,1.000000
tronW3IO,200,1, test, 7, 7, 3, 4, 1, 1, 4, 0.65, 0.35, right, 2, 0.35, 0.45, 0.55, 0.65, 0.6613751999975648, 1, 2.000000,76.000000,1.000000,6.000000,0.500000,1.000000
tronW3IO,200,1, test, 7, 7, 4, 2, 3, 3, 2, 0.45, 0.55, right, 2, 0.35, 0.45, 0.55, 0.65, 0.8356910000002244, 1, 3.000000,77.000000,1.000000,6.000000,0.500000,1.000000
tronW3IO,200,1, test, 7, 7, 5, 2, 3, 3, 2, 0.45, 0.55, right, 2, 0.35, 0.45, 0.55, 0.65, 0.49450790000264533, 1, 4.000000,78.000000,1.000000,6.000000,0.500000,1.000000
tronW3IO,200,1, test, 7, 7, 6, 2, 1, 1, 2, 0.45, 0.35, right, 2, 0.35, 0.45, 0.55, 0.65, 0.3868170999994618, 1, 5.000000,79.000000,1.000000,6.000000,0.500000,1.000000
tronW3IO,200,1, test, 7, 7, 7, 4, 3, 3, 4, 0.65, 0.55, right, 2, 0.35, 0.45, 0.55, 0.65, 1.1886054999995395, 1, 6.000000,80.000000,1.000000,6.000000,0.500000,1.000000
tronW3IO,200,1, test, 7, 7, 8, 3, 1, 1, 3, 0.55, 0.35, right, 2, 0.35, 0.45, 0.55, 0.65, 1.349911899997096, 0, 6.000000,80.000000,1.000000,6.000000,0.500000,1.000000
tronW3IO,200,1, test, 7, 7, 9, 4, 3, 4, 3, 0.65, 0.55, left, 1, 0.35, 0.45, 0.55, 0.65, 0.5241030999968643, 0, 6.000000,80.000000,1.000000,6.000000,0.500000,1.000000
tronW3IO,200,1, test, 7, 7, 10, 4, 3, 4, 3, 0.65, 0.55, left, 1, 0.35, 0.45, 0.55, 0.65, 0.5004954999967595, 1, 7.000000,81.000000,1.000000,6.000000,0.500000,1.000000
tronW3IO,200,1, test, 7, 7, 11, 4, 1, 4, 1, 0.65, 0.35, left, 1, 0.35, 0.45, 0.55, 0.65, 0.5220023000001675, 0, 7.000000,81.000000,1.000000,6.000000,0.500000,1.000000
tronW3IO,200,1, test, 7, 7, 12, 1, 4, 4, 1, 0.35, 0.65, right, 2, 0.35, 0.45, 0.55, 0.65, 0.805816699998104, 0, 7.000000,81.000000,1.000000,6.000000,0.500000,1.000000
tronW3IO,200,1, test, 7, 7, 13, 2, 1, 1, 2, 0.45, 0.35, right, 2, 0.35, 0.45, 0.55, 0.65, 0.6545981000017491, 1, 8.000000,82.000000,1.000000,6.000000,0.500000,1.000000
tronW3IO,200,1, test, 7, 7, 14, 4, 3, 4, 3, 0.65, 0.55, left, 1, 0.35, 0.45, 0.55, 0.65, 0.8456119999973453, 1, 9.000000,83.000000,1.000000,6.000000,0.500000,1.000000
tronW3IO,200,1, test, 7, 7, 15, 4, 3, 4, 3, 0.65, 0.55, left, 1, 0.35, 0.45, 0.55, 0.65, 0.5067557000002125, 0, 9.000000,83.000000,1.000000,6.000000,0.500000,1.000000
tronW3IO,200,1, test, 7, 7, 16, 2, 4, 4, 2, 0.45, 0.65, right, 2, 0.35, 0.45, 0.55, 0.65, 0.3312925999998697, 1, 10.000000,84.000000,1.000000,6.000000,0.500000,1.000000
tronW3IO,200,1, test, 7, 7, 17, 2, 4, 4, 2, 0.45, 0.65, right, 2, 0.35, 0.45, 0.55, 0.65, 0.3144365999978618, 1, 11.000000,85.000000,1.000000,6.000000,0.500000,1.000000
tronW3IO,200,1, test, 7, 7, 18, 4, 1, 4, 1, 0.65, 0.35, left, 1, 0.35, 0.45, 0.55, 0.65, 0.526338499999838, 0, 11.000000,85.000000,1.000000,6.000000,0.500000,1.000000
tronW3IO,200,1, test, 7, 7, 19, 2, 3, 3, 2, 0.45, 0.55, right, 2, 0.35, 0.45, 0.55, 0.65, 0.5157646000006935, 1, 12.000000,86.000000,1.000000,6.000000,0.500000,1.000000
tronW3IO,200,1, test, 7, 7, 20, 3, 1, 3, 1, 0.55, 0.35, left, 1, 0.35, 0.45, 0.55, 0.65, 2.14335900000151, 1, 13.000000,87.000000,1.000000,6.000000,0.500000,1.000000
tronW3IO,200,1, test, 7, 7, 21, 4, 1, 1, 4, 0.65, 0.35, right, 2, 0.35, 0.45, 0.55, 0.65, 1.5034132000000682, 1, 14.000000,88.000000,1.000000,6.000000,0.500000,1.000000
tronW3IO,200,1, test, 7, 7, 22, 4, 1, 1, 4, 0.65, 0.35, right, 2, 0.35, 0.45, 0.55, 0.65, 0.6034711999964202, 1, 15.000000,89.000000,1.000000,6.000000,0.500000,1.000000
tronW3IO,200,1, test, 7, 7, 23, 4, 3, 3, 4, 0.65, 0.55, right, 2, 0.35, 0.45, 0.55, 0.65, 0.38791269999637734, 1, 16.000000,90.000000,1.000000,6.000000,0.500000,1.000000
tronW3IO,200,1, test, 7, 7, 24, 1, 3, 3, 1, 0.35, 0.55, right, 2, 0.35, 0.45, 0.55, 0.65, 0.9813852000006591, 0, 16.000000,90.000000,1.000000,6.000000,0.500000,1.000000
tronW3IO,200,1, test, 7, 7, 25, 4, 1, 4, 1, 0.65, 0.35, left, 1, 0.35, 0.45, 0.55, 0.65, 0.6341294000012567, 1, 17.000000,91.000000,1.000000,6.000000,0.500000,1.000000
tronW3IO,200,1, test, 8, 1, 1, 1, 2, 2, 1, 0.35, 0.45, right, 2, 0.35, 0.45, 0.55, 0.65, 0.36093390000314685, 0, 0.000000,91.000000,1.000000,6.000000,0.500000,1.000000
tronW3IO,200,1, test, 8, 1, 2, 3, 4, 4, 3, 0.55, 0.65, right, 2, 0.35, 0.45, 0.55, 0.65, 0.6072545999995782, 1, 1.000000,92.000000,1.000000,6.000000,0.500000,1.000000
tronW3IO,200,1, test, 8, 1, 3, 3, 4, 4, 3, 0.55, 0.65, right, 2, 0.35, 0.45, 0.55, 0.65, 0.29167469999811146, 1, 2.000000,93.000000,1.000000,6.000000,0.500000,1.000000
tronW3IO,200,1, test, 8, 1, 4, 4, 2, 4, 2, 0.65, 0.45, left, 1, 0.35, 0.45, 0.55, 0.65, 0.6246893999996246, 1, 3.000000,94.000000,1.000000,6.000000,0.500000,1.000000
tronW3IO,200,1, test, 8, 1, 5, 2, 1, 1, 2, 0.45, 0.35, right, 2, 0.35, 0.45, 0.55, 0.65, 0.41832350000186125, 1, 4.000000,95.000000,1.000000,6.000000,0.500000,1.000000
tronW3IO,200,1, test, 8, 1, 6, 2, 4, 4, 2, 0.45, 0.65, right, 2, 0.35, 0.45, 0.55, 0.65, 0.4463997999991989, 1, 5.000000,96.000000,1.000000,6.000000,0.500000,1.000000
tronW3IO,200,1, test, 8, 1, 7, 2, 3, 2, 3, 0.45, 0.55, left, 1, 0.35, 0.45, 0.55, 0.65, 0.3914615999965463, 1, 6.000000,97.000000,1.000000,6.000000,0.500000,1.000000
tronW3IO,200,1, test, 8, 1, 8, 2, 3, 2, 3, 0.45, 0.55, left, 1, 0.35, 0.45, 0.55, 0.65, 0.36238679999951273, 0, 6.000000,97.000000,1.000000,6.000000,0.500000,1.000000
tronW3IO,200,1, test, 8, 1, 9, 3, 4, 3, 4, 0.55, 0.65, left, 1, 0.35, 0.45, 0.55, 0.65, 0.34346999999979744, 1, 7.000000,98.000000,1.000000,6.000000,0.500000,1.000000
tronW3IO,200,1, test, 8, 1, 10, 2, 4, 2, 4, 0.45, 0.65, left, 1, 0.35, 0.45, 0.55, 0.65, 0.5753954999963753, 1, 8.000000,99.000000,1.000000,6.000000,0.500000,1.000000
tronW3IO,200,1, test, 8, 1, 11, 2, 3, 3, 2, 0.45, 0.55, right, 2, 0.35, 0.45, 0.55, 0.65, 0.3066718999980367, 1, 9.000000,100.000000,1.000000,6.000000,0.500000,1.000000
tronW3IO,200,1, test, 8, 1, 12, 3, 4, 3, 4, 0.55, 0.65, left, 1, 0.35, 0.45, 0.55, 0.65, 0.40549409999948693, 0, 9.000000,100.000000,1.000000,6.000000,0.500000,1.000000
tronW3IO,200,1, test, 8, 1, 13, 3, 4, 3, 4, 0.55, 0.65, left, 1, 0.35, 0.45, 0.55, 0.65, 0.3852132000029087, 1, 10.000000,101.000000,1.000000,6.000000,0.500000,1.000000
tronW3IO,200,1, test, 8, 1, 14, 4, 1, 4, 1, 0.65, 0.35, left, 1, 0.35, 0.45, 0.55, 0.65, 0.5122009000042453, 1, 11.000000,102.000000,1.000000,6.000000,0.500000,1.000000
tronW3IO,200,1, test, 8, 1, 15, 2, 4, 4, 2, 0.45, 0.65, right, 2, 0.35, 0.45, 0.55, 0.65, 0.34275679999700515, 0, 11.000000,102.000000,1.000000,6.000000,0.500000,1.000000
tronW3IO,200,1, test, 8, 1, 16, 3, 2, 3, 2, 0.55, 0.45, left, 1, 0.35, 0.45, 0.55, 0.65, 0.5477146999983233, 1, 12.000000,103.000000,1.000000,6.000000,0.500000,1.000000
tronW3IO,200,1, test, 8, 1, 17, 3, 1, 1, 3, 0.55, 0.35, right, 2, 0.35, 0.45, 0.55, 0.65, 0.3623483999981545, 1, 13.000000,104.000000,1.000000,6.000000,0.500000,1.000000
tronW3IO,200,1, test, 8, 1, 18, 3, 2, 3, 2, 0.55, 0.45, left, 1, 0.35, 0.45, 0.55, 0.65, 0.45205049999640323, 0, 13.000000,104.000000,1.000000,6.000000,0.500000,1.000000
tronW3IO,200,1, test, 8, 1, 19, 2, 4, 2, 4, 0.45, 0.65, left, 1, 0.35, 0.45, 0.55, 0.65, 0.35800120000203606, 0, 13.000000,104.000000,1.000000,6.000000,0.500000,1.000000
tronW3IO,200,1, test, 8, 1, 20, 4, 1, 1, 4, 0.65, 0.35, right, 2, 0.35, 0.45, 0.55, 0.65, 0.3645741000000271, 1, 14.000000,105.000000,1.000000,6.000000,0.500000,1.000000
tronW3IO,200,1, test, 8, 1, 21, 4, 1, 4, 1, 0.65, 0.35, left, 1, 0.35, 0.45, 0.55, 0.65, 0.3598878999982844, 0, 14.000000,105.000000,1.000000,6.000000,0.500000,1.000000
tronW3IO,200,1, test, 8, 1, 22, 4, 2, 4, 2, 0.65, 0.45, left, 1, 0.35, 0.45, 0.55, 0.65, 0.4092520999984117, 1, 15.000000,106.000000,1.000000,6.000000,0.500000,1.000000
tronW3IO,200,1, test, 8, 1, 23, 4, 2, 2, 4, 0.65, 0.45, right, 2, 0.35, 0.45, 0.55, 0.65, 0.6477035999996588, 1, 16.000000,107.000000,1.000000,6.000000,0.500000,1.000000
tronW3IO,200,1, test, 8, 1, 24, 4, 1, 1, 4, 0.65, 0.35, right, 2, 0.35, 0.45, 0.55, 0.65, 0.32856529999844497, 0, 16.000000,107.000000,1.000000,6.000000,0.500000,1.000000
tronW3IO,200,1, test, 8, 1, 25, 3, 1, 3, 1, 0.55, 0.35, left, 1, 0.35, 0.45, 0.55, 0.65, 0.5099695000026259, 0, 16.000000,107.000000,1.000000,6.000000,0.500000,1.000000
