ShaharID, group, counterbalance, block_type, block, delay_condition, trial, chosen, unchosen, offer_left_image, offer_right_image, exp_value_chosen, exp_value_unchosen, choice_location, choice_key, exp_value1, exp_value2, exp_value3, exp_value4, RT, reward, coins_per_block, coins_per_task,ITI_duration,rt_deadline,choice_feedback_duration,outcome_duration
4wf4NRy2,100,1, practice, 1, 1, 1, 2, 3, 2, 3, 0.45, 0.55, left, 1, 0.35, 0.45, 0.55, 0.65, 1.1537092000071425, 0, 0.000000,0.000000,1.000000,6.000000,0.500000,1.000000
4wf4NRy2,100,1, practice, 1, 1, 2, 4, 1, 1, 4, 0.65, 0.35, right, 2, 0.35, 0.45, 0.55, 0.65, 1.0355271000007633, 1, 1.000000,1.000000,1.000000,6.000000,0.500000,1.000000
4wf4NRy2,100,1, practice, 1, 1, 3, 1, 3, 3, 1, 0.35, 0.55, right, 2, 0.35, 0.45, 0.55, 0.65, 0.8858225000003586, 1, 2.000000,2.000000,1.000000,6.000000,0.500000,1.000000
4wf4NRy2,100,1, practice, 1, 1, 4, 1, 3, 1, 3, 0.35, 0.55, left, 1, 0.35, 0.45, 0.55, 0.65, 0.5070651000132784, 1, 3.000000,3.000000,1.000000,6.000000,0.500000,1.000000
4wf4NRy2,100,1, practice, 1, 1, 5, 4, 1, 1, 4, 0.65, 0.35, right, 2, 0.35, 0.45, 0.55, 0.65, 0.6548388000082923, 0, 3.000000,3.000000,1.000000,6.000000,0.500000,1.000000
4wf4NRy2,100,1, test, 1, 7, 1, 3, 2, 3, 2, 0.55, 0.45, left, 1, 0.35, 0.45, 0.55, 0.65, 0.6608024000015575, 0, 0.000000,3.000000,1.000000,6.000000,0.500000,1.000000
4wf4NRy2,100,1, test, 1, 7, 2, 1, 2, 2, 1, 0.35, 0.45, right, 2, 0.35, 0.45, 0.55, 0.65, 0.8537223999883281, 0, 0.000000,3.000000,1.000000,6.000000,0.500000,1.000000
4wf4NRy2,100,1, test, 1, 7, 3, 4, 3, 3, 4, 0.65, 0.55, right, 2, 0.35, 0.45, 0.55, 0.65, 0.6767610000097193, 1, 1.000000,4.000000,1.000000,6.000000,0.500000,1.000000
4wf4NRy2,100,1, test, 1, 7, 4, 1, 3, 1, 3, 0.35, 0.55, left, 1, 0.35, 0.45, 0.55, 0.65, 1.0427429000119446, 1, 2.000000,5.000000,1.000000,6.000000,0.500000,1.000000
4wf4NRy2,100,1, test, 1, 7, 5, 2, 4, 4, 2, 0.45, 0.65, right, 2, 0.35, 0.45, 0.55, 0.65, 0.6420456000050763, 0, 2.000000,5.000000,1.000000,6.000000,0.500000,1.000000
4wf4NRy2,100,1, test, 1, 7, 6, 4, 2, 2, 4, 0.65, 0.45, right, 2, 0.35, 0.45, 0.55, 0.65, 0.7967745999922045, 1, 3.000000,6.000000,1.000000,6.000000,0.500000,1.000000
4wf4NRy2,100,1, test, 1, 7, 7, 4, 2, 4, 2, 0.65, 0.45, left, 1, 0.35, 0.45, 0.55, 0.65, 0.632401499999105, 1, 4.000000,7.000000,1.000000,6.000000,0.500000,1.000000
4wf4NRy2,100,1, test, 1, 7, 8, 4, 3, 3, 4, 0.65, 0.55, right, 2, 0.35, 0.45, 0.55, 0.65, 1.2313318999949843, 1, 5.000000,8.000000,1.000000,6.000000,0.500000,1.000000
4wf4NRy2,100,1, test, 1, 7, 9, 3, 2, 3, 2, 0.55, 0.45, left, 1, 0.35, 0.45, 0.55, 0.65, 1.6579534000047715, 1, 6.000000,9.000000,1.000000,6.000000,0.500000,1.000000
4wf4NRy2,100,1, test, 1, 7, 10, 3, 1, 3, 1, 0.55, 0.35, left, 1, 0.35, 0.45, 0.55, 0.65, 0.8752066000015475, 1, 7.000000,10.000000,1.000000,6.000000,0.500000,1.000000
4wf4NRy2,100,1, test, 1, 7, 11, 3, 2, 2, 3, 0.55, 0.45, right, 2, 0.35, 0.45, 0.55, 0.65, 0.5311952000047313, 1, 8.000000,11.000000,1.000000,6.000000,0.500000,1.000000
4wf4NRy2,100,1, test, 1, 7, 12, 4, 1, 1, 4, 0.65, 0.35, right, 2, 0.35, 0.45, 0.55, 0.65, 0.8394014000077732, 0, 8.000000,11.000000,1.000000,6.000000,0.500000,1.000000
4wf4NRy2,100,1, test, 1, 7, 13, 2, 4, 2, 4, 0.45, 0.65, left, 1, 0.35, 0.45, 0.55, 0.65, 0.42904980000457726, 1, 9.000000,12.000000,1.000000,6.000000,0.500000,1.000000
4wf4NRy2,100,1, test, 1, 7, 14, 1, 4, 1, 4, 0.35, 0.65, left, 1, 0.35, 0.45, 0.55, 0.65, 2.1290814000094542, 0, 9.000000,12.000000,1.000000,6.000000,0.500000,1.000000
4wf4NRy2,100,1, test, 1, 7, 15, 1, 2, 2, 1, 0.35, 0.45, right, 2, 0.35, 0.45, 0.55, 0.65, 1.136518300001626, 0, 9.000000,12.000000,1.000000,6.000000,0.500000,1.000000
4wf4NRy2,100,1, test, 1, 7, 16, 3, 1, 3, 1, 0.55, 0.35, left, 1, 0.35, 0.45, 0.55, 0.65, 0.49568720000388566, 0, 9.000000,12.000000,1.000000,6.000000,0.500000,1.000000
4wf4NRy2,100,1, test, 1, 7, 17, 4, 2, 2, 4, 0.65, 0.45, right, 2, 0.35, 0.45, 0.55, 0.65, 0.7409179000096628, 1, 10.000000,13.000000,1.000000,6.000000,0.500000,1.000000
4wf4NRy2,100,1, test, 1, 7, 18, 4, 1, 4, 1, 0.65, 0.35, left, 1, 0.35, 0.45, 0.55, 0.65, 0.7997376000130316, 0, 10.000000,13.000000,1.000000,6.000000,0.500000,1.000000
4wf4NRy2,100,1, test, 1, 7, 19, 3, 2, 2, 3, 0.55, 0.45, right, 2, 0.35, 0.45, 0.55, 0.65, 1.0556734999991022, 0, 10.000000,13.000000,1.000000,6.000000,0.500000,1.000000
4wf4NRy2,100,1, test, 1, 7, 20, 2, 1, 1, 2, 0.45, 0.35, right, 2, 0.35, 0.45, 0.55, 0.65, 0.4101392000011401, 0, 10.000000,13.000000,1.000000,6.000000,0.500000,1.000000
4wf4NRy2,100,1, test, 1, 7, 21, 1, 3, 1, 3, 0.35, 0.55, left, 1, 0.35, 0.45, 0.55, 0.65, 1.430906200010213, 0, 10.000000,13.000000,1.000000,6.000000,0.500000,1.000000
4wf4NRy2,100,1, test, 1, 7, 22, 4, 1, 4, 1, 0.65, 0.35, left, 1, 0.35, 0.45, 0.55, 0.65, 0.8895523999963189, 1, 11.000000,14.000000,1.000000,6.000000,0.500000,1.000000
4wf4NRy2,100,1, test, 1, 7, 23, 3, 1, 1, 3, 0.55, 0.35, right, 2, 0.35, 0.45, 0.55, 0.65, 1.9348655999929179, 1, 12.000000,15.000000,1.000000,6.000000,0.500000,1.000000
4wf4NRy2,100,1, test, 1, 7, 24, 2, 1, 1, 2, 0.45, 0.35, right, 2, 0.35, 0.45, 0.55, 0.65, 1.418159699998796, 0, 12.000000,15.000000,1.000000,6.000000,0.500000,1.000000
4wf4NRy2,100,1, test, 1, 7, 25, 1, 3, 1, 3, 0.35, 0.55, left, 1, 0.35, 0.45, 0.55, 0.65, 1.0173606000025757, 1, 13.000000,16.000000,1.000000,6.000000,0.500000,1.000000
4wf4NRy2,100,1, test, 2, 1, 1, 4, 1, 1, 4, 0.65, 0.35, right, 2, 0.35, 0.45, 0.55, 0.65, 0.6985893000091892, 0, 0.000000,16.000000,1.000000,6.000000,0.500000,1.000000
4wf4NRy2,100,1, test, 2, 1, 2, 1, 4, 4, 1, 0.35, 0.65, right, 2, 0.35, 0.45, 0.55, 0.65, 1.5387092000019038, 1, 1.000000,17.000000,1.000000,6.000000,0.500000,1.000000
4wf4NRy2,100,1, test, 2, 1, 3, 1, 4, 1, 4, 0.35, 0.65, left, 1, 0.35, 0.45, 0.55, 0.65, 0.5708482000045478, 1, 2.000000,18.000000,1.000000,6.000000,0.500000,1.000000
4wf4NRy2,100,1, test, 2, 1, 4, 1, 3, 1, 3, 0.35, 0.55, left, 1, 0.35, 0.45, 0.55, 0.65, 0.6081263999949442, 1, 3.000000,19.000000,1.000000,6.000000,0.500000,1.000000
4wf4NRy2,100,1, test, 2, 1, 5, 3, 4, 4, 3, 0.55, 0.65, right, 2, 0.35, 0.45, 0.55, 0.65, 1.759826499997871, 1, 4.000000,20.000000,1.000000,6.000000,0.500000,1.000000
4wf4NRy2,100,1, test, 2, 1, 6, 3, 1, 3, 1, 0.55, 0.35, left, 1, 0.35, 0.45, 0.55, 0.65, 0.5820182000024943, 1, 5.000000,21.000000,1.000000,6.000000,0.500000,1.000000
4wf4NRy2,100,1, test, 2, 1, 7, 3, 2, 3, 2, 0.55, 0.45, left, 1, 0.35, 0.45, 0.55, 0.65, 1.0826864999980899, 0, 5.000000,21.000000,1.000000,6.000000,0.500000,1.000000
4wf4NRy2,100,1, test, 2, 1, 8, 1, 4, 4, 1, 0.35, 0.65, right, 2, 0.35, 0.45, 0.55, 0.65, 1.027247800011537, 0, 5.000000,21.000000,1.000000,6.000000,0.500000,1.000000
4wf4NRy2,100,1, test, 2, 1, 9, 4, 1, 1, 4, 0.65, 0.35, right, 2, 0.35, 0.45, 0.55, 0.65, 0.4826587000134168, 1, 6.000000,22.000000,1.000000,6.000000,0.500000,1.000000
4wf4NRy2,100,1, test, 2, 1, 10, 4, 2, 2, 4, 0.65, 0.45, right, 2, 0.35, 0.45, 0.55, 0.65, 0.519332999989274, 0, 6.000000,22.000000,1.000000,6.000000,0.500000,1.000000
4wf4NRy2,100,1, test, 2, 1, 11, 1, 4, 1, 4, 0.35, 0.65, left, 1, 0.35, 0.45, 0.55, 0.65, 0.7553581000101985, 0, 6.000000,22.000000,1.000000,6.000000,0.500000,1.000000
4wf4NRy2,100,1, test, 2, 1, 12, 2, 1, 1, 2, 0.45, 0.35, right, 2, 0.35, 0.45, 0.55, 0.65, 0.9812973000080092, 0, 6.000000,22.000000,1.000000,6.000000,0.500000,1.000000
4wf4NRy2,100,1, test, 2, 1, 13, 1, 2, 1, 2, 0.35, 0.45, left, 1, 0.35, 0.45, 0.55, 0.65, 1.3058872999972664, 0, 6.000000,22.000000,1.000000,6.000000,0.500000,1.000000
4wf4NRy2,100,1, test, 2, 1, 14, 3, 4, 3, 4, 0.55, 0.65, left, 1, 0.35, 0.45, 0.55, 0.65, 0.7259499999927357, 0, 6.000000,22.000000,1.000000,6.000000,0.500000,1.000000
4wf4NRy2,100,1, test, 2, 1, 15, 1, 3, 3, 1, 0.35, 0.55, right, 2, 0.35, 0.45, 0.55, 0.65, 0.7934034000063548, 0, 6.000000,22.000000,1.000000,6.000000,0.500000,1.000000
4wf4NRy2,100,1, test, 2, 1, 16, 4, 2, 2, 4, 0.65, 0.45, right, 2, 0.35, 0.45, 0.55, 0.65, 0.785951700003352, 0, 6.000000,22.000000,1.000000,6.000000,0.500000,1.000000
4wf4NRy2,100,1, test, 2, 1, 17, 2, 3, 2, 3, 0.45, 0.55, left, 1, 0.35, 0.45, 0.55, 0.65, 1.2792617999948561, 0, 6.000000,22.000000,1.000000,6.000000,0.500000,1.000000
4wf4NRy2,100,1, test, 2, 1, 18, 3, 1, 3, 1, 0.55, 0.35, left, 1, 0.35, 0.45, 0.55, 0.65, 1.62463679999928, 0, 6.000000,22.000000,1.000000,6.000000,0.500000,1.000000
4wf4NRy2,100,1, test, 2, 1, 19, 1, 4, 4, 1, 0.35, 0.65, right, 2, 0.35, 0.45, 0.55, 0.65, 1.2267314000055194, 1, 7.000000,23.000000,1.000000,6.000000,0.500000,1.000000
4wf4NRy2,100,1, test, 2, 1, 20, 2, 3, 2, 3, 0.45, 0.55, left, 1, 0.35, 0.45, 0.55, 0.65, 1.462633300005109, 0, 7.000000,23.000000,1.000000,6.000000,0.500000,1.000000
4wf4NRy2,100,1, test, 2, 1, 21, 2, 1, 2, 1, 0.45, 0.35, left, 1, 0.35, 0.45, 0.55, 0.65, 1.0932079999911366, 0, 7.000000,23.000000,1.000000,6.000000,0.500000,1.000000
4wf4NRy2,100,1, test, 2, 1, 22, 4, 2, 2, 4, 0.65, 0.45, right, 2, 0.35, 0.45, 0.55, 0.65, 0.9411739000061061, 1, 8.000000,24.000000,1.000000,6.000000,0.500000,1.000000
4wf4NRy2,100,1, test, 2, 1, 23, 1, 2, 2, 1, 0.35, 0.45, right, 2, 0.35, 0.45, 0.55, 0.65, 0.9273675000004005, 0, 8.000000,24.000000,1.000000,6.000000,0.500000,1.000000
4wf4NRy2,100,1, test, 2, 1, 24, 2, 1, 2, 1, 0.45, 0.35, left, 1, 0.35, 0.45, 0.55, 0.65, 0.45057010000164155, 1, 9.000000,25.000000,1.000000,6.000000,0.500000,1.000000
4wf4NRy2,100,1, test, 2, 1, 25, 2, 4, 4, 2, 0.45, 0.65, right, 2, 0.35, 0.45, 0.55, 0.65, 0.376521899990621, 0, 9.000000,25.000000,1.000000,6.000000,0.500000,1.000000
4wf4NRy2,100,1, test, 3, 7, 1, 3, 2, 2, 3, 0.55, 0.45, right, 2, 0.35, 0.45, 0.55, 0.65, 0.9744960999960313, 0, 0.000000,25.000000,1.000000,6.000000,0.500000,1.000000
4wf4NRy2,100,1, test, 3, 7, 2, 2, 3, 3, 2, 0.45, 0.55, right, 2, 0.35, 0.45, 0.55, 0.65, 0.42045400000642985, 0, 0.000000,25.000000,1.000000,6.000000,0.500000,1.000000
4wf4NRy2,100,1, test, 3, 7, 3, 1, 2, 2, 1, 0.35, 0.45, right, 2, 0.35, 0.45, 0.55, 0.65, 1.2164366000070004, 0, 0.000000,25.000000,1.000000,6.000000,0.500000,1.000000
4wf4NRy2,100,1, test, 3, 7, 4, 3, 1, 1, 3, 0.55, 0.35, right, 2, 0.35, 0.45, 0.55, 0.65, 2.800386900009471, 1, 1.000000,26.000000,1.000000,6.000000,0.500000,1.000000
4wf4NRy2,100,1, test, 3, 7, 5, 3, 2, 3, 2, 0.55, 0.45, left, 1, 0.35, 0.45, 0.55, 0.65, 0.58911969998735, 1, 2.000000,27.000000,1.000000,6.000000,0.500000,1.000000
4wf4NRy2,100,1, test, 3, 7, 6, 4, 1, 4, 1, 0.65, 0.35, left, 1, 0.35, 0.45, 0.55, 0.65, 1.0943389000021853, 0, 2.000000,27.000000,1.000000,6.000000,0.500000,1.000000
4wf4NRy2,100,1, test, 3, 7, 7, 2, 4, 2, 4, 0.45, 0.65, left, 1, 0.35, 0.45, 0.55, 0.65, 0.8395005999918794, 0, 2.000000,27.000000,1.000000,6.000000,0.500000,1.000000
4wf4NRy2,100,1, test, 3, 7, 8, 4, 3, 4, 3, 0.65, 0.55, left, 1, 0.35, 0.45, 0.55, 0.65, 1.362116899996181, 1, 3.000000,28.000000,1.000000,6.000000,0.500000,1.000000
4wf4NRy2,100,1, test, 3, 7, 9, 4, 3, 4, 3, 0.65, 0.55, left, 1, 0.35, 0.45, 0.55, 0.65, 0.7327858000062406, 1, 4.000000,29.000000,1.000000,6.000000,0.500000,1.000000
4wf4NRy2,100,1, test, 3, 7, 10, 1, 2, 1, 2, 0.35, 0.45, left, 1, 0.35, 0.45, 0.55, 0.65, 0.9679538999916986, 0, 4.000000,29.000000,1.000000,6.000000,0.500000,1.000000
4wf4NRy2,100,1, test, 3, 7, 11, 3, 1, 3, 1, 0.55, 0.35, left, 1, 0.35, 0.45, 0.55, 0.65, 0.6340442999935476, 0, 4.000000,29.000000,1.000000,6.000000,0.500000,1.000000
4wf4NRy2,100,1, test, 3, 7, 12, 2, 3, 3, 2, 0.45, 0.55, right, 2, 0.35, 0.45, 0.55, 0.65, 1.4413793999992777, 1, 5.000000,30.000000,1.000000,6.000000,0.500000,1.000000
4wf4NRy2,100,1, test, 3, 7, 13, 2, 3, 3, 2, 0.45, 0.55, right, 2, 0.35, 0.45, 0.55, 0.65, 0.4606576999940444, 0, 5.000000,30.000000,1.000000,6.000000,0.500000,1.000000
4wf4NRy2,100,1, test, 3, 7, 14, 1, 2, 1, 2, 0.35, 0.45, left, 1, 0.35, 0.45, 0.55, 0.65, 0.8795239000028232, 0, 5.000000,30.000000,1.000000,6.000000,0.500000,1.000000
4wf4NRy2,100,1, test, 3, 7, 15, 3, 1, 1, 3, 0.55, 0.35, right, 2, 0.35, 0.45, 0.55, 0.65, 0.9327358000009554, 1, 6.000000,31.000000,1.000000,6.000000,0.500000,1.000000
4wf4NRy2,100,1, test, 3, 7, 16, 2, 1, 2, 1, 0.45, 0.35, left, 1, 0.35, 0.45, 0.55, 0.65, 0.819296800007578, 0, 6.000000,31.000000,1.000000,6.000000,0.500000,1.000000
4wf4NRy2,100,1, test, 3, 7, 17, 4, 2, 4, 2, 0.65, 0.45, left, 1, 0.35, 0.45, 0.55, 0.65, 0.6473013999930117, 1, 7.000000,32.000000,1.000000,6.000000,0.500000,1.000000
4wf4NRy2,100,1, test, 3, 7, 18, 3, 1, 3, 1, 0.55, 0.35, left, 1, 0.35, 0.45, 0.55, 0.65, 1.3017647999949986, 1, 8.000000,33.000000,1.000000,6.000000,0.500000,1.000000
4wf4NRy2,100,1, test, 3, 7, 19, 3, 4, 4, 3, 0.55, 0.65, right, 2, 0.35, 0.45, 0.55, 0.65, 0.7903860999940662, 1, 9.000000,34.000000,1.000000,6.000000,0.500000,1.000000
4wf4NRy2,100,1, test, 3, 7, 20, 4, 3, 3, 4, 0.65, 0.55, right, 2, 0.35, 0.45, 0.55, 0.65, 0.6677414000005228, 1, 10.000000,35.000000,1.000000,6.000000,0.500000,1.000000
4wf4NRy2,100,1, test, 3, 7, 21, 4, 3, 3, 4, 0.65, 0.55, right, 2, 0.35, 0.45, 0.55, 0.65, 0.5172481000045082, 1, 11.000000,36.000000,1.000000,6.000000,0.500000,1.000000
4wf4NRy2,100,1, test, 3, 7, 22, 3, 2, 2, 3, 0.55, 0.45, right, 2, 0.35, 0.45, 0.55, 0.65, 0.7811511000036262, 0, 11.000000,36.000000,1.000000,6.000000,0.500000,1.000000
4wf4NRy2,100,1, test, 3, 7, 23, 4, 1, 1, 4, 0.65, 0.35, right, 2, 0.35, 0.45, 0.55, 0.65, 0.8970582999900216, 1, 12.000000,37.000000,1.000000,6.000000,0.500000,1.000000
4wf4NRy2,100,1, test, 3, 7, 24, 1, 3, 3, 1, 0.35, 0.55, right, 2, 0.35, 0.45, 0.55, 0.65, 1.4365040999982739, 0, 12.000000,37.000000,1.000000,6.000000,0.500000,1.000000
4wf4NRy2,100,1, test, 3, 7, 25, 3, 1, 1, 3, 0.55, 0.35, right, 2, 0.35, 0.45, 0.55, 0.65, 0.45576390001224354, 1, 13.000000,38.000000,1.000000,6.000000,0.500000,1.000000
4wf4NRy2,100,1, test, 4, 1, 1, 3, 2, 3, 2, 0.55, 0.45, left, 1, 0.35, 0.45, 0.55, 0.65, 0.7729127000056906, 1, 1.000000,39.000000,1.000000,6.000000,0.500000,1.000000
4wf4NRy2,100,1, test, 4, 1, 2, 4, 2, 2, 4, 0.65, 0.45, right, 2, 0.35, 0.45, 0.55, 0.65, 0.9815284000069369, 1, 2.000000,40.000000,1.000000,6.000000,0.500000,1.000000
4wf4NRy2,100,1, test, 4, 1, 3, 2, 1, 2, 1, 0.45, 0.35, left, 1, 0.35, 0.45, 0.55, 0.65, 1.160195800010115, 1, 3.000000,41.000000,1.000000,6.000000,0.500000,1.000000
4wf4NRy2,100,1, test, 4, 1, 4, 3, 1, 1, 3, 0.55, 0.35, right, 2, 0.35, 0.45, 0.55, 0.65, 1.0907424999895738, 1, 4.000000,42.000000,1.000000,6.000000,0.500000,1.000000
4wf4NRy2,100,1, test, 4, 1, 5, 3, 2, 2, 3, 0.55, 0.45, right, 2, 0.35, 0.45, 0.55, 0.65, 1.3480673000012757, 1, 5.000000,43.000000,1.000000,6.000000,0.500000,1.000000
4wf4NRy2,100,1, test, 4, 1, 6, 3, 1, 1, 3, 0.55, 0.35, right, 2, 0.35, 0.45, 0.55, 0.65, 0.5669118000078015, 1, 6.000000,44.000000,1.000000,6.000000,0.500000,1.000000
4wf4NRy2,100,1, test, 4, 1, 7, 4, 3, 4, 3, 0.65, 0.55, left, 1, 0.35, 0.45, 0.55, 0.65, 0.6842891999986023, 1, 7.000000,45.000000,1.000000,6.000000,0.500000,1.000000
4wf4NRy2,100,1, test, 4, 1, 8, 2, 3, 2, 3, 0.45, 0.55, left, 1, 0.35, 0.45, 0.55, 0.65, 0.9214193000079831, 1, 8.000000,46.000000,1.000000,6.000000,0.500000,1.000000
4wf4NRy2,100,1, test, 4, 1, 9, 3, 2, 3, 2, 0.55, 0.45, left, 1, 0.35, 0.45, 0.55, 0.65, 0.49751250000554137, 1, 9.000000,47.000000,1.000000,6.000000,0.500000,1.000000
4wf4NRy2,100,1, test, 4, 1, 10, 1, 2, 1, 2, 0.35, 0.45, left, 1, 0.35, 0.45, 0.55, 0.65, 0.7991231000050902, 0, 9.000000,47.000000,1.000000,6.000000,0.500000,1.000000
4wf4NRy2,100,1, test, 4, 1, 11, 2, 4, 2, 4, 0.45, 0.65, left, 1, 0.35, 0.45, 0.55, 0.65, 0.8147933000000194, 1, 10.000000,48.000000,1.000000,6.000000,0.500000,1.000000
4wf4NRy2,100,1, test, 4, 1, 12, 2, 1, 2, 1, 0.45, 0.35, left, 1, 0.35, 0.45, 0.55, 0.65, 0.4668851000024006, 1, 11.000000,49.000000,1.000000,6.000000,0.500000,1.000000
4wf4NRy2,100,1, test, 4, 1, 13, 3, 2, 3, 2, 0.55, 0.45, left, 1, 0.35, 0.45, 0.55, 0.65, 0.6609444000059739, 1, 12.000000,50.000000,1.000000,6.000000,0.500000,1.000000
4wf4NRy2,100,1, test, 4, 1, 14, 3, 4, 3, 4, 0.55, 0.65, left, 1, 0.35, 0.45, 0.55, 0.65, 0.4513223999965703, 1, 13.000000,51.000000,1.000000,6.000000,0.500000,1.000000
4wf4NRy2,100,1, test, 4, 1, 15, 1, 2, 2, 1, 0.35, 0.45, right, 2, 0.35, 0.45, 0.55, 0.65, 0.7863910000014585, 0, 13.000000,51.000000,1.000000,6.000000,0.500000,1.000000
4wf4NRy2,100,1, test, 4, 1, 16, 2, 1, 2, 1, 0.45, 0.35, left, 1, 0.35, 0.45, 0.55, 0.65, 0.651550300011877, 0, 13.000000,51.000000,1.000000,6.000000,0.500000,1.000000
4wf4NRy2,100,1, test, 4, 1, 17, 3, 1, 1, 3, 0.55, 0.35, right, 2, 0.35, 0.45, 0.55, 0.65, 1.1181534999923315, 1, 14.000000,52.000000,1.000000,6.000000,0.500000,1.000000
4wf4NRy2,100,1, test, 4, 1, 18, 4, 1, 4, 1, 0.65, 0.35, left, 1, 0.35, 0.45, 0.55, 0.65, 0.8126075000036508, 0, 14.000000,52.000000,1.000000,6.000000,0.500000,1.000000
4wf4NRy2,100,1, test, 4, 1, 19, 4, 3, 3, 4, 0.65, 0.55, right, 2, 0.35, 0.45, 0.55, 0.65, 0.6459849999955622, 1, 15.000000,53.000000,1.000000,6.000000,0.500000,1.000000
4wf4NRy2,100,1, test, 4, 1, 20, 4, 2, 4, 2, 0.65, 0.45, left, 1, 0.35, 0.45, 0.55, 0.65, 0.39323529999819584, 1, 16.000000,54.000000,1.000000,6.000000,0.500000,1.000000
4wf4NRy2,100,1, test, 4, 1, 21, 3, 2, 3, 2, 0.55, 0.45, left, 1, 0.35, 0.45, 0.55, 0.65, 0.6026393000065582, 0, 16.000000,54.000000,1.000000,6.000000,0.500000,1.000000
4wf4NRy2,100,1, test, 4, 1, 22, 4, 3, 4, 3, 0.65, 0.55, left, 1, 0.35, 0.45, 0.55, 0.65, 0.6873249000054784, 1, 17.000000,55.000000,1.000000,6.000000,0.500000,1.000000
4wf4NRy2,100,1, test, 4, 1, 23, 2, 4, 4, 2, 0.45, 0.65, right, 2, 0.35, 0.45, 0.55, 0.65, 0.7127595000056317, 1, 18.000000,56.000000,1.000000,6.000000,0.500000,1.000000
4wf4NRy2,100,1, test, 4, 1, 24, 3, 4, 4, 3, 0.55, 0.65, right, 2, 0.35, 0.45, 0.55, 0.65, 0.7846525999921141, 1, 19.000000,57.000000,1.000000,6.000000,0.500000,1.000000
4wf4NRy2,100,1, test, 4, 1, 25, 2, 3, 2, 3, 0.45, 0.55, left, 1, 0.35, 0.45, 0.55, 0.65, 0.7619548999937251, 0, 19.000000,57.000000,1.000000,6.000000,0.500000,1.000000
4wf4NRy2,100,1, test, 5, 7, 1, 4, 2, 2, 4, 0.65, 0.45, right, 2, 0.35, 0.45, 0.55, 0.65, 0.4105691000004299, 1, 1.000000,58.000000,1.000000,6.000000,0.500000,1.000000
4wf4NRy2,100,1, test, 5, 7, 2, 4, 2, 4, 2, 0.65, 0.45, left, 1, 0.35, 0.45, 0.55, 0.65, 0.6002199999929871, 1, 2.000000,59.000000,1.000000,6.000000,0.500000,1.000000
4wf4NRy2,100,1, test, 5, 7, 3, 1, 4, 4, 1, 0.35, 0.65, right, 2, 0.35, 0.45, 0.55, 0.65, 0.5478684999980032, 0, 2.000000,59.000000,1.000000,6.000000,0.500000,1.000000
4wf4NRy2,100,1, test, 5, 7, 4, 2, 1, 1, 2, 0.45, 0.35, right, 2, 0.35, 0.45, 0.55, 0.65, 0.5538779000053182, 1, 3.000000,60.000000,1.000000,6.000000,0.500000,1.000000
4wf4NRy2,100,1, test, 5, 7, 5, 3, 4, 4, 3, 0.55, 0.65, right, 2, 0.35, 0.45, 0.55, 0.65, 0.9126084000017727, 1, 4.000000,61.000000,1.000000,6.000000,0.500000,1.000000
4wf4NRy2,100,1, test, 5, 7, 6, 1, 4, 1, 4, 0.35, 0.65, left, 1, 0.35, 0.45, 0.55, 0.65, 0.5612647000089055, 0, 4.000000,61.000000,1.000000,6.000000,0.500000,1.000000
4wf4NRy2,100,1, test, 5, 7, 7, 2, 3, 2, 3, 0.45, 0.55, left, 1, 0.35, 0.45, 0.55, 0.65, 1.508822500007227, 0, 4.000000,61.000000,1.000000,6.000000,0.500000,1.000000
4wf4NRy2,100,1, test, 5, 7, 8, 3, 2, 3, 2, 0.55, 0.45, left, 1, 0.35, 0.45, 0.55, 0.65, 0.7845068000024185, 0, 4.000000,61.000000,1.000000,6.000000,0.500000,1.000000
4wf4NRy2,100,1, test, 5, 7, 9, 4, 3, 4, 3, 0.65, 0.55, left, 1, 0.35, 0.45, 0.55, 0.65, 1.3265787999989698, 1, 5.000000,62.000000,1.000000,6.000000,0.500000,1.000000
4wf4NRy2,100,1, test, 5, 7, 10, 1, 2, 2, 1, 0.35, 0.45, right, 2, 0.35, 0.45, 0.55, 0.65, 1.0098249000002397, 1, 6.000000,63.000000,1.000000,6.000000,0.500000,1.000000
4wf4NRy2,100,1, test, 5, 7, 11, 3, 4, 3, 4, 0.55, 0.65, left, 1, 0.35, 0.45, 0.55, 0.65, 0.6895102999988012, 1, 7.000000,64.000000,1.000000,6.000000,0.500000,1.000000
4wf4NRy2,100,1, test, 5, 7, 12, 3, 4, 3, 4, 0.55, 0.65, left, 1, 0.35, 0.45, 0.55, 0.65, 0.6255749999982072, 0, 7.000000,64.000000,1.000000,6.000000,0.500000,1.000000
4wf4NRy2,100,1, test, 5, 7, 13, 3, 4, 3, 4, 0.55, 0.65, left, 1, 0.35, 0.45, 0.55, 0.65, 0.607676999992691, 0, 7.000000,64.000000,1.000000,6.000000,0.500000,1.000000
4wf4NRy2,100,1, test, 5, 7, 14, 4, 2, 4, 2, 0.65, 0.45, left, 1, 0.35, 0.45, 0.55, 0.65, 1.2763049000059254, 1, 8.000000,65.000000,1.000000,6.000000,0.500000,1.000000
4wf4NRy2,100,1, test, 5, 7, 15, 1, 2, 1, 2, 0.35, 0.45, left, 1, 0.35, 0.45, 0.55, 0.65, 0.8861850000103004, 0, 8.000000,65.000000,1.000000,6.000000,0.500000,1.000000
4wf4NRy2,100,1, test, 5, 7, 16, 3, 2, 2, 3, 0.55, 0.45, right, 2, 0.35, 0.45, 0.55, 0.65, 0.6234753000026103, 0, 8.000000,65.000000,1.000000,6.000000,0.500000,1.000000
4wf4NRy2,100,1, test, 5, 7, 17, 2, 1, 2, 1, 0.45, 0.35, left, 1, 0.35, 0.45, 0.55, 0.65, 0.5235775000037393, 1, 9.000000,66.000000,1.000000,6.000000,0.500000,1.000000
4wf4NRy2,100,1, test, 5, 7, 18, 4, 3, 3, 4, 0.65, 0.55, right, 2, 0.35, 0.45, 0.55, 0.65, 0.6834875999920769, 0, 9.000000,66.000000,1.000000,6.000000,0.500000,1.000000
4wf4NRy2,100,1, test, 5, 7, 19, 3, 1, 1, 3, 0.55, 0.35, right, 2, 0.35, 0.45, 0.55, 0.65, 0.431979400003911, 1, 10.000000,67.000000,1.000000,6.000000,0.500000,1.000000
4wf4NRy2,100,1, test, 5, 7, 20, 2, 4, 2, 4, 0.45, 0.65, left, 1, 0.35, 0.45, 0.55, 0.65, 0.6433535999967717, 0, 10.000000,67.000000,1.000000,6.000000,0.500000,1.000000
4wf4NRy2,100,1, test, 5, 7, 21, 2, 1, 2, 1, 0.45, 0.35, left, 1, 0.35, 0.45, 0.55, 0.65, 0.818807999996352, 1, 11.000000,68.000000,1.000000,6.000000,0.500000,1.000000
4wf4NRy2,100,1, test, 5, 7, 22, 1, 3, 3, 1, 0.35, 0.55, right, 2, 0.35, 0.45, 0.55, 0.65, 0.6308084999909624, 1, 12.000000,69.000000,1.000000,6.000000,0.500000,1.000000
4wf4NRy2,100,1, test, 5, 7, 23, 2, 3, 2, 3, 0.45, 0.55, left, 1, 0.35, 0.45, 0.55, 0.65, 0.7579429999896092, 0, 12.000000,69.000000,1.000000,6.000000,0.500000,1.000000
4wf4NRy2,100,1, test, 5, 7, 24, 1, 4, 4, 1, 0.35, 0.65, right, 2, 0.35, 0.45, 0.55, 0.65, 1.22458419999748, 0, 12.000000,69.000000,1.000000,6.000000,0.500000,1.000000
4wf4NRy2,100,1, test, 5, 7, 25, 3, 2, 2, 3, 0.55, 0.45, right, 2, 0.35, 0.45, 0.55, 0.65, 0.6685510999959661, 0, 12.000000,69.000000,1.000000,6.000000,0.500000,1.000000
4wf4NRy2,100,1, test, 6, 1, 1, 2, 3, 3, 2, 0.45, 0.55, right, 2, 0.35, 0.45, 0.55, 0.65, 0.3813075000070967, 0, 0.000000,69.000000,1.000000,6.000000,0.500000,1.000000
4wf4NRy2,100,1, test, 6, 1, 2, 1, 2, 2, 1, 0.35, 0.45, right, 2, 0.35, 0.45, 0.55, 0.65, 0.7505472999910126, 0, 0.000000,69.000000,1.000000,6.000000,0.500000,1.000000
4wf4NRy2,100,1, test, 6, 1, 3, 3, 4, 4, 3, 0.55, 0.65, right, 2, 0.35, 0.45, 0.55, 0.65, 0.8333200000051875, 1, 1.000000,70.000000,1.000000,6.000000,0.500000,1.000000
4wf4NRy2,100,1, test, 6, 1, 4, 3, 1, 1, 3, 0.55, 0.35, right, 2, 0.35, 0.45, 0.55, 0.65, 0.4843665999942459, 1, 2.000000,71.000000,1.000000,6.000000,0.500000,1.000000
4wf4NRy2,100,1, test, 6, 1, 5, 4, 1, 1, 4, 0.65, 0.35, right, 2, 0.35, 0.45, 0.55, 0.65, 0.5898455999995349, 1, 3.000000,72.000000,1.000000,6.000000,0.500000,1.000000
4wf4NRy2,100,1, test, 6, 1, 6, 4, 1, 4, 1, 0.65, 0.35, left, 1, 0.35, 0.45, 0.55, 0.65, 0.5950400000001537, 1, 4.000000,73.000000,1.000000,6.000000,0.500000,1.000000
4wf4NRy2,100,1, test, 6, 1, 7, 1, 4, 4, 1, 0.35, 0.65, right, 2, 0.35, 0.45, 0.55, 0.65, 0.6285075999912806, 0, 4.000000,73.000000,1.000000,6.000000,0.500000,1.000000
4wf4NRy2,100,1, test, 6, 1, 8, 2, 1, 1, 2, 0.45, 0.35, right, 2, 0.35, 0.45, 0.55, 0.65, 0.6804733000026317, 1, 5.000000,74.000000,1.000000,6.000000,0.500000,1.000000
4wf4NRy2,100,1, test, 6, 1, 9, 1, 4, 1, 4, 0.35, 0.65, left, 1, 0.35, 0.45, 0.55, 0.65, 0.7139381000015419, 0, 5.000000,74.000000,1.000000,6.000000,0.500000,1.000000
4wf4NRy2,100,1, test, 6, 1, 10, 4, 3, 4, 3, 0.65, 0.55, left, 1, 0.35, 0.45, 0.55, 0.65, 0.5817903999995906, 0, 5.000000,74.000000,1.000000,6.000000,0.500000,1.000000
4wf4NRy2,100,1, test, 6, 1, 11, 1, 4, 4, 1, 0.35, 0.65, right, 2, 0.35, 0.45, 0.55, 0.65, 0.5031564999953844, 0, 5.000000,74.000000,1.000000,6.000000,0.500000,1.000000
4wf4NRy2,100,1, test, 6, 1, 12, 2, 1, 2, 1, 0.45, 0.35, left, 1, 0.35, 0.45, 0.55, 0.65, 0.6516777999931946, 1, 6.000000,75.000000,1.000000,6.000000,0.500000,1.000000
4wf4NRy2,100,1, test, 6, 1, 13, 3, 4, 4, 3, 0.55, 0.65, right, 2, 0.35, 0.45, 0.55, 0.65, 0.9263610000052722, 0, 6.000000,75.000000,1.000000,6.000000,0.500000,1.000000
4wf4NRy2,100,1, test, 6, 1, 14, 4, 1, 4, 1, 0.65, 0.35, left, 1, 0.35, 0.45, 0.55, 0.65, 0.47837799999979325, 0, 6.000000,75.000000,1.000000,6.000000,0.500000,1.000000
4wf4NRy2,100,1, test, 6, 1, 15, 1, 3, 1, 3, 0.35, 0.55, left, 1, 0.35, 0.45, 0.55, 0.65, 0.5203162999969209, 0, 6.000000,75.000000,1.000000,6.000000,0.500000,1.000000
4wf4NRy2,100,1, test, 6, 1, 16, 3, 4, 4, 3, 0.55, 0.65, right, 2, 0.35, 0.45, 0.55, 0.65, 0.48428220000641886, 0, 6.000000,75.000000,1.000000,6.000000,0.500000,1.000000
4wf4NRy2,100,1, test, 6, 1, 17, 3, 1, 1, 3, 0.55, 0.35, right, 2, 0.35, 0.45, 0.55, 0.65, 0.3458511000062572, 1, 7.000000,76.000000,1.000000,6.000000,0.500000,1.000000
4wf4NRy2,100,1, test, 6, 1, 18, 3, 2, 3, 2, 0.55, 0.45, left, 1, 0.35, 0.45, 0.55, 0.65, 0.5329095000051893, 0, 7.000000,76.000000,1.000000,6.000000,0.500000,1.000000
4wf4NRy2,100,1, test, 6, 1, 19, 2, 3, 2, 3, 0.45, 0.55, left, 1, 0.35, 0.45, 0.55, 0.65, 0.548176299998886, 0, 7.000000,76.000000,1.000000,6.000000,0.500000,1.000000
4wf4NRy2,100,1, test, 6, 1, 20, 3, 2, 2, 3, 0.55, 0.45, right, 2, 0.35, 0.45, 0.55, 0.65, 0.5268288999941433, 1, 8.000000,77.000000,1.000000,6.000000,0.500000,1.000000
4wf4NRy2,100,1, test, 6, 1, 21, 3, 4, 4, 3, 0.55, 0.65, right, 2, 0.35, 0.45, 0.55, 0.65, 0.35508300000219606, 0, 8.000000,77.000000,1.000000,6.000000,0.500000,1.000000
4wf4NRy2,100,1, test, 6, 1, 22, 2, 1, 1, 2, 0.45, 0.35, right, 2, 0.35, 0.45, 0.55, 0.65, 0.6097031999961473, 0, 8.000000,77.000000,1.000000,6.000000,0.500000,1.000000
4wf4NRy2,100,1, test, 6, 1, 23, 3, 1, 3, 1, 0.55, 0.35, left, 1, 0.35, 0.45, 0.55, 0.65, 0.5383976000011899, 0, 8.000000,77.000000,1.000000,6.000000,0.500000,1.000000
4wf4NRy2,100,1, test, 6, 1, 24, 1, 3, 3, 1, 0.35, 0.55, right, 2, 0.35, 0.45, 0.55, 0.65, 0.3811061000014888, 1, 9.000000,78.000000,1.000000,6.000000,0.500000,1.000000
4wf4NRy2,100,1, test, 6, 1, 25, 3, 2, 3, 2, 0.55, 0.45, left, 1, 0.35, 0.45, 0.55, 0.65, 0.574934200005373, 0, 9.000000,78.000000,1.000000,6.000000,0.500000,1.000000
4wf4NRy2,100,1, test, 7, 7, 1, 4, 1, 1, 4, 0.65, 0.35, right, 2, 0.35, 0.45, 0.55, 0.65, 0.5842938999994658, 1, 1.000000,79.000000,1.000000,6.000000,0.500000,1.000000
4wf4NRy2,100,1, test, 7, 7, 2, 3, 1, 1, 3, 0.55, 0.35, right, 2, 0.35, 0.45, 0.55, 0.65, 0.8616278999979841, 0, 1.000000,79.000000,1.000000,6.000000,0.500000,1.000000
4wf4NRy2,100,1, test, 7, 7, 3, 2, 4, 2, 4, 0.45, 0.65, left, 1, 0.35, 0.45, 0.55, 0.65, 1.036178900001687, 1, 2.000000,80.000000,1.000000,6.000000,0.500000,1.000000
4wf4NRy2,100,1, test, 7, 7, 4, 1, 4, 4, 1, 0.35, 0.65, right, 2, 0.35, 0.45, 0.55, 0.65, 1.0636154999956489, 0, 2.000000,80.000000,1.000000,6.000000,0.500000,1.000000
4wf4NRy2,100,1, test, 7, 7, 5, 4, 1, 1, 4, 0.65, 0.35, right, 2, 0.35, 0.45, 0.55, 0.65, 0.637397400001646, 1, 3.000000,81.000000,1.000000,6.000000,0.500000,1.000000
4wf4NRy2,100,1, test, 7, 7, 6, 2, 1, 1, 2, 0.45, 0.35, right, 2, 0.35, 0.45, 0.55, 0.65, 0.636629400003585, 1, 4.000000,82.000000,1.000000,6.000000,0.500000,1.000000
4wf4NRy2,100,1, test, 7, 7, 7, 2, 1, 1, 2, 0.45, 0.35, right, 2, 0.35, 0.45, 0.55, 0.65, 0.575964900010149, 0, 4.000000,82.000000,1.000000,6.000000,0.500000,1.000000
4wf4NRy2,100,1, test, 7, 7, 8, 3, 2, 2, 3, 0.55, 0.45, right, 2, 0.35, 0.45, 0.55, 0.65, 0.4380336000031093, 1, 5.000000,83.000000,1.000000,6.000000,0.500000,1.000000
4wf4NRy2,100,1, test, 7, 7, 9, 2, 1, 1, 2, 0.45, 0.35, right, 2, 0.35, 0.45, 0.55, 0.65, 0.6052219999983208, 1, 6.000000,84.000000,1.000000,6.000000,0.500000,1.000000
4wf4NRy2,100,1, test, 7, 7, 10, 3, 1, 1, 3, 0.55, 0.35, right, 2, 0.35, 0.45, 0.55, 0.65, 1.1381254000007175, 1, 7.000000,85.000000,1.000000,6.000000,0.500000,1.000000
4wf4NRy2,100,1, test, 7, 7, 11, 2, 1, 2, 1, 0.45, 0.35, left, 1, 0.35, 0.45, 0.55, 0.65, 0.8133889000018826, 0, 7.000000,85.000000,1.000000,6.000000,0.500000,1.000000
4wf4NRy2,100,1, test, 7, 7, 12, 4, 3, 4, 3, 0.65, 0.55, left, 1, 0.35, 0.45, 0.55, 0.65, 1.237278900007368, 1, 8.000000,86.000000,1.000000,6.000000,0.500000,1.000000
4wf4NRy2,100,1, test, 7, 7, 13, 3, 4, 3, 4, 0.55, 0.65, left, 1, 0.35, 0.45, 0.55, 0.65, 1.06065130000934, 0, 8.000000,86.000000,1.000000,6.000000,0.500000,1.000000
4wf4NRy2,100,1, test, 7, 7, 14, 1, 3, 3, 1, 0.35, 0.55, right, 2, 0.35, 0.45, 0.55, 0.65, 0.683156200000667, 0, 8.000000,86.000000,1.000000,6.000000,0.500000,1.000000
4wf4NRy2,100,1, test, 7, 7, 15, 2, 1, 2, 1, 0.45, 0.35, left, 1, 0.35, 0.45, 0.55, 0.65, 0.7724274999927729, 0, 8.000000,86.000000,1.000000,6.000000,0.500000,1.000000
4wf4NRy2,100,1, test, 7, 7, 16, 1, 3, 1, 3, 0.35, 0.55, left, 1, 0.35, 0.45, 0.55, 0.65, 0.4103976999904262, 0, 8.000000,86.000000,1.000000,6.000000,0.500000,1.000000
4wf4NRy2,100,1, test, 7, 7, 17, 2, 4, 4, 2, 0.45, 0.65, right, 2, 0.35, 0.45, 0.55, 0.65, 1.4590576000045985, 1, 9.000000,87.000000,1.000000,6.000000,0.500000,1.000000
4wf4NRy2,100,1, test, 7, 7, 18, 2, 4, 4, 2, 0.45, 0.65, right, 2, 0.35, 0.45, 0.55, 0.65, 0.4256228000012925, 0, 9.000000,87.000000,1.000000,6.000000,0.500000,1.000000
4wf4NRy2,100,1, test, 7, 7, 19, 4, 3, 3, 4, 0.65, 0.55, right, 2, 0.35, 0.45, 0.55, 0.65, 0.5933522999985144, 1, 10.000000,88.000000,1.000000,6.000000,0.500000,1.000000
4wf4NRy2,100,1, test, 7, 7, 20, 4, 1, 1, 4, 0.65, 0.35, right, 2, 0.35, 0.45, 0.55, 0.65, 0.44778190000215545, 1, 11.000000,89.000000,1.000000,6.000000,0.500000,1.000000
4wf4NRy2,100,1, test, 7, 7, 21, 3, 4, 3, 4, 0.55, 0.65, left, 1, 0.35, 0.45, 0.55, 0.65, 0.5824317000078736, 1, 12.000000,90.000000,1.000000,6.000000,0.500000,1.000000
4wf4NRy2,100,1, test, 7, 7, 22, 2, 1, 1, 2, 0.45, 0.35, right, 2, 0.35, 0.45, 0.55, 0.65, 0.7036403999954928, 0, 12.000000,90.000000,1.000000,6.000000,0.500000,1.000000
4wf4NRy2,100,1, test, 7, 7, 23, 2, 3, 2, 3, 0.45, 0.55, left, 1, 0.35, 0.45, 0.55, 0.65, 0.5521979000041028, 0, 12.000000,90.000000,1.000000,6.000000,0.500000,1.000000
4wf4NRy2,100,1, test, 7, 7, 24, 2, 1, 2, 1, 0.45, 0.35, left, 1, 0.35, 0.45, 0.55, 0.65, 0.7029518999916036, 1, 13.000000,91.000000,1.000000,6.000000,0.500000,1.000000
4wf4NRy2,100,1, test, 7, 7, 25, 2, 4, 4, 2, 0.45, 0.65, right, 2, 0.35, 0.45, 0.55, 0.65, 1.8943107000086457, 1, 14.000000,92.000000,1.000000,6.000000,0.500000,1.000000
4wf4NRy2,100,1, test, 8, 1, 1, 4, 2, 2, 4, 0.65, 0.45, right, 2, 0.35, 0.45, 0.55, 0.65, 0.4487247000070056, 0, 0.000000,92.000000,1.000000,6.000000,0.500000,1.000000
4wf4NRy2,100,1, test, 8, 1, 2, 2, 3, 2, 3, 0.45, 0.55, left, 1, 0.35, 0.45, 0.55, 0.65, 0.9233907000016188, 1, 1.000000,93.000000,1.000000,6.000000,0.500000,1.000000
4wf4NRy2,100,1, test, 8, 1, 3, 4, 3, 3, 4, 0.65, 0.55, right, 2, 0.35, 0.45, 0.55, 0.65, 0.9554449999995995, 1, 2.000000,94.000000,1.000000,6.000000,0.500000,1.000000
4wf4NRy2,100,1, test, 8, 1, 4, 1, 2, 2, 1, 0.35, 0.45, right, 2, 0.35, 0.45, 0.55, 0.65, 1.1422967999969842, 0, 2.000000,94.000000,1.000000,6.000000,0.500000,1.000000
4wf4NRy2,100,1, test, 8, 1, 5, 2, 3, 2, 3, 0.45, 0.55, left, 1, 0.35, 0.45, 0.55, 0.65, 1.0254409000044689, 1, 3.000000,95.000000,1.000000,6.000000,0.500000,1.000000
4wf4NRy2,100,1, test, 8, 1, 6, 4, 3, 3, 4, 0.65, 0.55, right, 2, 0.35, 0.45, 0.55, 0.65, 1.2893314999964787, 1, 4.000000,96.000000,1.000000,6.000000,0.500000,1.000000
4wf4NRy2,100,1, test, 8, 1, 7, 2, 3, 3, 2, 0.45, 0.55, right, 2, 0.35, 0.45, 0.55, 0.65, 0.9388583999971161, 1, 5.000000,97.000000,1.000000,6.000000,0.500000,1.000000
4wf4NRy2,100,1, test, 8, 1, 8, 2, 3, 3, 2, 0.45, 0.55, right, 2, 0.35, 0.45, 0.55, 0.65, 0.5260471999936271, 0, 5.000000,97.000000,1.000000,6.000000,0.500000,1.000000
4wf4NRy2,100,1, test, 8, 1, 9, 1, 4, 1, 4, 0.35, 0.65, left, 1, 0.35, 0.45, 0.55, 0.65, 1.0701017000101274, 1, 6.000000,98.000000,1.000000,6.000000,0.500000,1.000000
4wf4NRy2,100,1, test, 8, 1, 10, 1, 3, 3, 1, 0.35, 0.55, right, 2, 0.35, 0.45, 0.55, 0.65, 0.44807379999838304, 0, 6.000000,98.000000,1.000000,6.000000,0.500000,1.000000
4wf4NRy2,100,1, test, 8, 1, 11, 2, 1, 2, 1, 0.45, 0.35, left, 1, 0.35, 0.45, 0.55, 0.65, 0.6149265999993077, 1, 7.000000,99.000000,1.000000,6.000000,0.500000,1.000000
4wf4NRy2,100,1, test, 8, 1, 12, 1, 2, 1, 2, 0.35, 0.45, left, 1, 0.35, 0.45, 0.55, 0.65, 0.4694569999992382, 1, 8.000000,100.000000,1.000000,6.000000,0.500000,1.000000
4wf4NRy2,100,1, test, 8, 1, 13, 1, 3, 1, 3, 0.35, 0.55, left, 1, 0.35, 0.45, 0.55, 0.65, 0.4207360000000335, 0, 8.000000,100.000000,1.000000,6.000000,0.500000,1.000000
4wf4NRy2,100,1, test, 8, 1, 14, 2, 3, 2, 3, 0.45, 0.55, left, 1, 0.35, 0.45, 0.55, 0.65, 1.012707900008536, 1, 9.000000,101.000000,1.000000,6.000000,0.500000,1.000000
4wf4NRy2,100,1, test, 8, 1, 15, 1, 3, 3, 1, 0.35, 0.55, right, 2, 0.35, 0.45, 0.55, 0.65, 0.7720616000005975, 0, 9.000000,101.000000,1.000000,6.000000,0.500000,1.000000
4wf4NRy2,100,1, test, 8, 1, 16, 4, 3, 3, 4, 0.65, 0.55, right, 2, 0.35, 0.45, 0.55, 0.65, 0.7355777000047965, 1, 10.000000,102.000000,1.000000,6.000000,0.500000,1.000000
4wf4NRy2,100,1, test, 8, 1, 17, 1, 2, 2, 1, 0.35, 0.45, right, 2, 0.35, 0.45, 0.55, 0.65, 0.8386965000099735, 0, 10.000000,102.000000,1.000000,6.000000,0.500000,1.000000
4wf4NRy2,100,1, test, 8, 1, 18, 2, 1, 2, 1, 0.45, 0.35, left, 1, 0.35, 0.45, 0.55, 0.65, 0.4622203999897465, 0, 10.000000,102.000000,1.000000,6.000000,0.500000,1.000000
4wf4NRy2,100,1, test, 8, 1, 19, 1, 3, 1, 3, 0.35, 0.55, left, 1, 0.35, 0.45, 0.55, 0.65, 0.7327386999968439, 0, 10.000000,102.000000,1.000000,6.000000,0.500000,1.000000
4wf4NRy2,100,1, test, 8, 1, 20, 4, 1, 1, 4, 0.65, 0.35, right, 2, 0.35, 0.45, 0.55, 0.65, 0.7239544000040041, 0, 10.000000,102.000000,1.000000,6.000000,0.500000,1.000000
4wf4NRy2,100,1, test, 8, 1, 21, 4, 1, 4, 1, 0.65, 0.35, left, 1, 0.35, 0.45, 0.55, 0.65, 0.447917099998449, 1, 11.000000,103.000000,1.000000,6.000000,0.500000,1.000000
4wf4NRy2,100,1, test, 8, 1, 22, 2, 3, 3, 2, 0.45, 0.55, right, 2, 0.35, 0.45, 0.55, 0.65, 1.274815500000841, 0, 11.000000,103.000000,1.000000,6.000000,0.500000,1.000000
4wf4NRy2,100,1, test, 8, 1, 23, 4, 2, 4, 2, 0.65, 0.45, left, 1, 0.35, 0.45, 0.55, 0.65, 0.6123660000012023, 0, 11.000000,103.000000,1.000000,6.000000,0.500000,1.000000
4wf4NRy2,100,1, test, 8, 1, 24, 4, 3, 3, 4, 0.65, 0.55, right, 2, 0.35, 0.45, 0.55, 0.65, 0.43737649999093264, 0, 11.000000,103.000000,1.000000,6.000000,0.500000,1.000000
4wf4NRy2,100,1, test, 8, 1, 25, 4, 2, 4, 2, 0.65, 0.45, left, 1, 0.35, 0.45, 0.55, 0.65, 1.5288209999998799, 1, 12.000000,104.000000,1.000000,6.000000,0.500000,1.000000
